# Voltage vs time V(t), example data 2, Exercise 2.
#     Time in seconds, voltage in millivolts.
#     Columns: t, mV(t)
0.00000, 542.00000
0.01000, 542.70000
0.02000, 542.00000
0.03000, 541.60000
0.04000, 542.10000
0.05000, 542.40000
0.06000, 541.70000
0.07000, 541.60000
0.08000, 542.80000
0.09000, 541.80000
0.10000, 542.10000
0.11000, 542.10000
0.12000, 542.40000
0.13000, 542.10000
0.14000, 541.80000
0.15000, 541.70000
0.16000, 543.00000
0.17000, 543.50000
0.18000, 542.10000
0.19000, 541.70000
0.20000, 542.30000
0.21000, 541.80000
0.22000, 542.10000
0.23000, 542.20000
0.24000, 542.70000
0.25000, 543.00000
0.26000, 542.90000
0.27000, 541.90000
0.28000, 542.50000
0.29000, 542.70000
0.30000, 542.80000
0.31000, 542.90000
0.32000, 544.10000
0.33000, 542.80000
0.34000, 542.70000
0.35000, 542.70000
0.36000, 543.30000
0.37000, 543.30000
0.38000, 543.90000
0.39000, 543.40000
0.40000, 543.30000
0.41000, 542.90000
0.42000, 542.70000
0.43000, 542.00000
0.44000, 542.10000
0.45000, 542.00000
0.46000, 541.40000
0.47000, 542.30000
0.48000, 541.70000
0.49000, 541.60000
0.50000, 541.90000
0.51000, 542.00000
0.52000, 542.20000
0.53000, 542.00000
0.54000, 541.50000
0.55000, 542.90000
0.56000, 542.40000
0.57000, 541.90000
0.58000, 541.80000
0.59000, 541.80000
0.60000, 541.90000
0.61000, 541.70000
0.62000, 542.10000
0.63000, 542.00000
0.64000, 542.40000
0.65000, 541.80000
0.66000, 541.60000
0.67000, 542.30000
0.68000, 541.70000
0.69000, 541.90000
0.70000, 542.30000
0.71000, 542.10000
0.72000, 542.10000
0.73000, 541.80000
0.74000, 542.20000
0.75000, 542.00000
0.76000, 541.60000
0.77000, 543.10000
0.78000, 541.90000
0.79000, 542.70000
0.80000, 542.00000
0.81000, 542.30000
0.82000, 542.00000
0.83000, 542.00000
0.84000, 542.00000
0.85000, 542.30000
0.86000, 542.20000
0.87000, 542.10000
0.88000, 542.50000
0.89000, 542.90000
0.90000, 543.50000
0.91000, 542.90000
0.92000, 543.10000
0.93000, 542.40000
0.94000, 543.60000
0.95000, 543.20000
0.96000, 543.40000
0.97000, 543.40000
0.98000, 542.60000
0.99000, 542.20000
1.00000, 541.40000
1.01000, 541.80000
1.02000, 542.10000
1.03000, 543.10000
1.04000, 542.70000
1.05000, 543.50000
1.06000, 542.20000
1.07000, 542.60000
1.08000, 543.20000
1.09000, 541.50000
1.10000, 543.10000
1.11000, 543.20000
1.12000, 543.30000
1.13000, 542.20000
1.14000, 542.10000
1.15000, 542.80000
1.16000, 542.00000
1.17000, 543.60000
1.18000, 543.00000
1.19000, 542.10000
1.20000, 543.40000
1.21000, 542.90000
1.22000, 541.80000
1.23000, 542.80000
1.24000, 541.70000
1.25000, 541.90000
1.26000, 542.60000
1.27000, 542.00000
1.28000, 542.10000
1.29000, 542.20000
1.30000, 542.20000
1.31000, 541.80000
1.32000, 542.90000
1.33000, 543.00000
1.34000, 542.40000
1.35000, 541.70000
1.36000, 542.30000
1.37000, 541.40000
1.38000, 542.30000
1.39000, 542.40000
1.40000, 542.70000
1.41000, 542.90000
1.42000, 542.90000
1.43000, 543.60000
1.44000, 543.10000
1.45000, 542.00000
1.46000, 542.20000
1.47000, 541.10000
1.48000, 541.60000
1.49000, 543.40000
1.50000, 543.00000
1.51000, 542.80000
1.52000, 542.90000
1.53000, 541.50000
1.54000, 542.00000
1.55000, 542.10000
1.56000, 541.80000
1.57000, 543.00000
1.58000, 543.10000
1.59000, 543.10000
1.60000, 542.40000
1.61000, 541.80000
1.62000, 542.20000
1.63000, 543.10000
1.64000, 543.60000
1.65000, 542.70000
1.66000, 542.70000
1.67000, 541.30000
1.68000, 542.80000
1.69000, 541.70000
1.70000, 542.00000
1.71000, 541.30000
1.72000, 542.30000
1.73000, 540.80000
1.74000, 541.50000
1.75000, 543.50000
1.76000, 543.30000
1.77000, 544.20000
1.78000, 543.20000
1.79000, 542.00000
1.80000, 541.80000
1.81000, 542.40000
1.82000, 543.20000
1.83000, 543.70000
1.84000, 543.10000
1.85000, 542.90000
1.86000, 542.50000
1.87000, 543.50000
1.88000, 543.40000
1.89000, 543.20000
1.90000, 542.50000
1.91000, 542.20000
1.92000, 542.40000
1.93000, 543.00000
1.94000, 543.00000
1.95000, 542.20000
1.96000, 541.60000
1.97000, 541.90000
1.98000, 542.30000
1.99000, 542.30000
2.00000, 543.00000
2.01000, 543.00000
2.02000, 542.80000
2.03000, 542.80000
2.04000, 543.40000
2.05000, 541.70000
2.06000, 542.40000
2.07000, 543.10000
2.08000, 541.90000
2.09000, 543.20000
2.10000, 543.70000
2.11000, 542.60000
2.12000, 542.60000
2.13000, 543.20000
2.14000, 543.10000
2.15000, 542.60000
2.16000, 542.20000
2.17000, 542.50000
2.18000, 541.40000
2.19000, 542.40000
2.20000, 541.70000
2.21000, 542.30000
2.22000, 543.40000
2.23000, 542.80000
2.24000, 542.50000
2.25000, 542.80000
2.26000, 543.20000
2.27000, 543.30000
2.28000, 543.40000
2.29000, 542.90000
2.30000, 542.10000
2.31000, 542.30000
2.32000, 541.90000
2.33000, 542.20000
2.34000, 541.90000
2.35000, 542.80000
2.36000, 542.20000
2.37000, 541.90000
2.38000, 543.20000
2.39000, 543.60000
2.40000, 543.10000
2.41000, 542.10000
2.42000, 542.10000
2.43000, 542.90000
2.44000, 543.30000
2.45000, 542.60000
2.46000, 543.20000
2.47000, 543.40000
2.48000, 543.40000
2.49000, 543.00000
2.50000, 542.50000
2.51000, 543.20000
2.52000, 542.30000
2.53000, 543.30000
2.54000, 543.10000
2.55000, 542.00000
2.56000, 542.80000
2.57000, 541.90000
2.58000, 543.20000
2.59000, 543.00000
2.60000, 542.90000
2.61000, 542.20000
2.62000, 542.10000
2.63000, 543.20000
2.64000, 542.50000
2.65000, 542.60000
2.66000, 543.00000
2.67000, 543.40000
2.68000, 542.40000
2.69000, 543.80000
2.70000, 542.80000
2.71000, 543.20000
2.72000, 542.90000
2.73000, 544.40000
2.74000, 542.80000
2.75000, 543.00000
2.76000, 543.00000
2.77000, 542.90000
2.78000, 543.50000
2.79000, 542.60000
2.80000, 542.70000
2.81000, 543.00000
2.82000, 542.80000
2.83000, 542.00000
2.84000, 542.10000
2.85000, 542.40000
2.86000, 543.00000
2.87000, 542.60000
2.88000, 541.90000
2.89000, 541.60000
2.90000, 542.10000
2.91000, 542.30000
2.92000, 542.00000
2.93000, 542.60000
2.94000, 541.80000
2.95000, 542.30000
2.96000, 541.70000
2.97000, 542.20000
2.98000, 543.10000
2.99000, 542.90000
3.00000, 542.70000
3.01000, 541.70000
3.02000, 542.60000
3.03000, 542.00000
3.04000, 542.60000
3.05000, 543.00000
3.06000, 541.70000
3.07000, 541.90000
3.08000, 542.50000
3.09000, 542.70000
3.10000, 543.50000
3.11000, 543.10000
3.12000, 542.70000
3.13000, 542.70000
3.14000, 543.10000
3.15000, 542.50000
3.16000, 542.90000
3.17000, 541.80000
3.18000, 541.80000
3.19000, 542.20000
3.20000, 542.00000
3.21000, 542.70000
3.22000, 543.70000
3.23000, 542.20000
3.24000, 542.00000
3.25000, 541.60000
3.26000, 542.60000
3.27000, 542.00000
3.28000, 542.20000
3.29000, 542.40000
3.30000, 542.60000
3.31000, 541.80000
3.32000, 542.40000
3.33000, 542.10000
3.34000, 541.60000
3.35000, 542.00000
3.36000, 542.50000
3.37000, 542.60000
3.38000, 541.60000
3.39000, 541.70000
3.40000, 541.40000
3.41000, 542.50000
3.42000, 543.80000
3.43000, 542.50000
3.44000, 542.80000
3.45000, 542.20000
3.46000, 542.80000
3.47000, 543.20000
3.48000, 543.20000
3.49000, 543.00000
3.50000, 542.90000
3.51000, 542.70000
3.52000, 542.80000
3.53000, 542.30000
3.54000, 542.60000
3.55000, 543.40000
3.56000, 543.90000
3.57000, 542.80000
3.58000, 543.40000
3.59000, 542.50000
3.60000, 542.80000
3.61000, 542.10000
3.62000, 543.10000
3.63000, 542.00000
3.64000, 542.70000
3.65000, 543.10000
3.66000, 543.00000
3.67000, 542.20000
3.68000, 541.20000
3.69000, 542.20000
3.70000, 541.80000
3.71000, 542.20000
3.72000, 543.60000
3.73000, 543.20000
3.74000, 542.30000
3.75000, 543.00000
3.76000, 542.50000
3.77000, 542.30000
3.78000, 542.00000
3.79000, 541.80000
3.80000, 542.10000
3.81000, 541.50000
3.82000, 542.30000
3.83000, 542.60000
3.84000, 543.00000
3.85000, 542.40000
3.86000, 542.50000
3.87000, 542.70000
3.88000, 542.90000
3.89000, 541.50000
3.90000, 543.40000
3.91000, 542.90000
3.92000, 543.60000
3.93000, 542.90000
3.94000, 543.00000
3.95000, 543.30000
3.96000, 543.20000
3.97000, 543.50000
3.98000, 542.90000
3.99000, 542.30000
4.00000, 542.20000
4.01000, 543.00000
4.02000, 543.30000
4.03000, 542.80000
4.04000, 542.50000
4.05000, 542.70000
4.06000, 543.70000
4.07000, 543.00000
4.08000, 543.30000
4.09000, 543.20000
4.10000, 541.50000
4.11000, 541.50000
4.12000, 542.60000
4.13000, 542.10000
4.14000, 541.90000
4.15000, 541.10000
4.16000, 543.00000
4.17000, 543.50000
4.18000, 542.80000
4.19000, 542.80000
4.20000, 542.60000
4.21000, 542.90000
4.22000, 542.40000
4.23000, 542.00000
4.24000, 541.60000
4.25000, 541.20000
4.26000, 541.90000
4.27000, 541.40000
4.28000, 541.80000
4.29000, 542.60000
4.30000, 542.10000
4.31000, 542.00000
4.32000, 542.00000
4.33000, 541.90000
4.34000, 541.60000
4.35000, 540.90000
4.36000, 542.00000
4.37000, 542.20000
4.38000, 542.70000
4.39000, 542.90000
4.40000, 542.80000
4.41000, 543.60000
4.42000, 543.40000
4.43000, 543.00000
4.44000, 542.90000
4.45000, 543.30000
4.46000, 542.00000
4.47000, 542.00000
4.48000, 542.20000
4.49000, 541.80000
4.50000, 543.40000
4.51000, 543.30000
4.52000, 542.70000
4.53000, 543.10000
4.54000, 542.90000
4.55000, 542.90000
4.56000, 542.90000
4.57000, 542.70000
4.58000, 542.80000
4.59000, 542.90000
4.60000, 542.80000
4.61000, 543.00000
4.62000, 543.50000
4.63000, 543.20000
4.64000, 543.50000
4.65000, 543.10000
4.66000, 542.60000
4.67000, 542.00000
4.68000, 541.90000
4.69000, 541.90000
4.70000, 541.80000
4.71000, 541.80000
4.72000, 542.00000
4.73000, 542.30000
4.74000, 542.30000
4.75000, 543.70000
4.76000, 543.80000
4.77000, 542.60000
4.78000, 541.80000
4.79000, 543.00000
4.80000, 542.70000
4.81000, 543.20000
4.82000, 542.10000
4.83000, 542.10000
4.84000, 542.60000
4.85000, 542.90000
4.86000, 542.80000
4.87000, 542.50000
4.88000, 543.00000
4.89000, 541.90000
4.90000, 541.60000
4.91000, 542.10000
4.92000, 542.10000
4.93000, 541.70000
4.94000, 542.20000
4.95000, 543.50000
4.96000, 542.60000
4.97000, 541.70000
4.98000, 543.30000
4.99000, 542.70000
5.00000, 541.30000
5.01000, 542.30000
5.02000, 542.70000
5.03000, 541.80000
5.04000, 541.80000
5.05000, 542.00000
5.06000, 542.10000
5.07000, 542.20000
5.08000, 541.80000
5.09000, 541.70000
5.10000, 543.50000
5.11000, 543.30000
5.12000, 542.80000
5.13000, 543.70000
5.14000, 542.60000
5.15000, 542.60000
5.16000, 543.30000
5.17000, 543.90000
5.18000, 542.70000
5.19000, 543.00000
5.20000, 543.10000
5.21000, 542.90000
5.22000, 542.40000
5.23000, 542.30000
5.24000, 542.40000
5.25000, 542.90000
5.26000, 543.30000
5.27000, 541.40000
5.28000, 542.00000
5.29000, 541.70000
5.30000, 542.30000
5.31000, 543.20000
5.32000, 543.20000
5.33000, 542.80000
5.34000, 543.30000
5.35000, 542.90000
5.36000, 541.90000
5.37000, 542.10000
5.38000, 542.80000
5.39000, 542.10000
5.40000, 543.40000
5.41000, 542.60000
5.42000, 543.00000
5.43000, 543.20000
5.44000, 542.20000
5.45000, 542.50000
5.46000, 541.60000
5.47000, 541.90000
5.48000, 543.70000
5.49000, 543.20000
5.50000, 543.10000
5.51000, 542.00000
5.52000, 542.20000
5.53000, 541.20000
5.54000, 541.70000
5.55000, 542.10000
5.56000, 542.10000
5.57000, 542.10000
5.58000, 542.00000
5.59000, 542.40000
5.60000, 542.70000
5.61000, 543.10000
5.62000, 542.20000
5.63000, 542.30000
5.64000, 541.90000
5.65000, 541.00000
5.66000, 543.30000
5.67000, 543.00000
5.68000, 541.90000
5.69000, 541.00000
5.70000, 542.30000
5.71000, 542.20000
5.72000, 541.50000
5.73000, 541.60000
5.74000, 541.60000
5.75000, 542.40000
5.76000, 542.40000
5.77000, 542.90000
5.78000, 543.10000
5.79000, 541.60000
5.80000, 541.80000
5.81000, 541.80000
5.82000, 541.90000
5.83000, 541.60000
5.84000, 542.90000
5.85000, 542.70000
5.86000, 543.70000
5.87000, 541.90000
5.88000, 542.10000
5.89000, 541.80000
5.90000, 542.50000
5.91000, 542.70000
5.92000, 542.40000
5.93000, 542.30000
5.94000, 543.00000
5.95000, 543.00000
5.96000, 543.20000
5.97000, 541.80000
5.98000, 541.80000
5.99000, 542.20000
6.00000, 542.50000
6.01000, 542.10000
6.02000, 542.30000
6.03000, 542.10000
6.04000, 542.20000
6.05000, 543.70000
6.06000, 543.20000
6.07000, 542.50000
6.08000, 541.70000
6.09000, 542.10000
6.10000, 542.20000
6.11000, 542.70000
6.12000, 541.90000
6.13000, 542.10000
6.14000, 542.60000
6.15000, 543.10000
6.16000, 542.70000
6.17000, 541.70000
6.18000, 542.70000
6.19000, 542.90000
6.20000, 542.40000
6.21000, 542.20000
6.22000, 542.90000
6.23000, 541.80000
6.24000, 542.60000
6.25000, 541.40000
6.26000, 543.10000
6.27000, 543.20000
6.28000, 542.80000
6.29000, 543.20000
6.30000, 542.80000
6.31000, 542.60000
6.32000, 543.00000
6.33000, 542.90000
6.34000, 543.10000
6.35000, 542.30000
6.36000, 542.30000
6.37000, 542.90000
6.38000, 543.40000
6.39000, 543.30000
6.40000, 543.00000
6.41000, 541.20000
6.42000, 543.20000
6.43000, 542.00000
6.44000, 543.30000
6.45000, 542.60000
6.46000, 542.50000
6.47000, 542.60000
6.48000, 542.80000
6.49000, 543.20000
6.50000, 542.30000
6.51000, 542.30000
6.52000, 543.30000
6.53000, 543.40000
6.54000, 543.20000
6.55000, 543.60000
6.56000, 543.10000
6.57000, 543.50000
6.58000, 542.10000
6.59000, 542.40000
6.60000, 541.90000
6.61000, 542.20000
6.62000, 541.80000
6.63000, 542.70000
6.64000, 541.80000
6.65000, 541.70000
6.66000, 542.90000
6.67000, 541.90000
6.68000, 542.60000
6.69000, 541.90000
6.70000, 543.10000
6.71000, 542.70000
6.72000, 543.10000
6.73000, 541.90000
6.74000, 541.90000
6.75000, 543.40000
6.76000, 543.10000
6.77000, 543.10000
6.78000, 543.40000
6.79000, 542.80000
6.80000, 542.00000
6.81000, 542.50000
6.82000, 543.70000
6.83000, 543.30000
6.84000, 542.10000
6.85000, 541.60000
6.86000, 541.90000
6.87000, 541.30000
6.88000, 542.00000
6.89000, 542.20000
6.90000, 541.50000
6.91000, 542.10000
6.92000, 541.80000
6.93000, 541.90000
6.94000, 542.40000
6.95000, 542.50000
6.96000, 542.20000
6.97000, 542.00000
6.98000, 541.40000
6.99000, 543.30000
7.00000, 542.70000
7.01000, 543.50000
7.02000, 542.90000
7.03000, 543.30000
7.04000, 543.20000
7.05000, 542.90000
7.06000, 542.80000
7.07000, 543.30000
7.08000, 543.60000
7.09000, 543.20000
7.10000, 542.20000
7.11000, 543.00000
7.12000, 542.60000
7.13000, 542.50000
7.14000, 543.60000
7.15000, 543.10000
7.16000, 542.30000
7.17000, 543.00000
7.18000, 542.60000
7.19000, 543.60000
7.20000, 543.10000
7.21000, 542.40000
7.22000, 543.20000
7.23000, 542.80000
7.24000, 543.10000
7.25000, 543.40000
7.26000, 543.30000
7.27000, 542.60000
7.28000, 542.60000
7.29000, 543.60000
7.30000, 542.70000
7.31000, 543.20000
7.32000, 542.90000
7.33000, 542.40000
7.34000, 542.90000
7.35000, 542.90000
7.36000, 543.20000
7.37000, 543.50000
7.38000, 542.60000
7.39000, 542.30000
7.40000, 542.50000
7.41000, 542.00000
7.42000, 542.40000
7.43000, 541.70000
7.44000, 542.70000
7.45000, 542.80000
7.46000, 542.40000
7.47000, 542.40000
7.48000, 543.40000
7.49000, 542.40000
7.50000, 542.30000
7.51000, 543.30000
7.52000, 543.00000
7.53000, 542.50000
7.54000, 541.70000
7.55000, 541.80000
7.56000, 542.40000
7.57000, 542.10000
7.58000, 541.80000
7.59000, 541.90000
7.60000, 542.00000
7.61000, 543.30000
7.62000, 542.90000
7.63000, 542.40000
7.64000, 542.40000
7.65000, 542.10000
7.66000, 543.20000
7.67000, 542.50000
7.68000, 542.70000
7.69000, 542.70000
7.70000, 542.10000
7.71000, 541.80000
7.72000, 542.90000
7.73000, 543.10000
7.74000, 543.10000
7.75000, 542.10000
7.76000, 542.10000
7.77000, 542.40000
7.78000, 542.30000
7.79000, 542.10000
7.80000, 542.00000
7.81000, 542.40000
7.82000, 542.30000
7.83000, 542.10000
7.84000, 541.70000
7.85000, 542.40000
7.86000, 541.40000
7.87000, 541.50000
7.88000, 542.30000
7.89000, 541.20000
7.90000, 542.70000
7.91000, 542.50000
7.92000, 542.10000
7.93000, 541.50000
7.94000, 541.60000
7.95000, 542.50000
7.96000, 542.10000
7.97000, 542.20000
7.98000, 542.10000
7.99000, 541.60000
8.00000, 542.70000
8.01000, 543.00000
8.02000, 543.00000
8.03000, 542.80000
8.04000, 542.40000
8.05000, 543.10000
8.06000, 542.90000
8.07000, 543.10000
8.08000, 542.00000
8.09000, 542.10000
8.10000, 542.10000
8.11000, 543.20000
8.12000, 543.20000
8.13000, 541.60000
8.14000, 541.30000
8.15000, 542.10000
8.16000, 542.20000
8.17000, 541.80000
8.18000, 542.30000
8.19000, 542.80000
8.20000, 542.90000
8.21000, 542.90000
8.22000, 543.20000
8.23000, 543.10000
8.24000, 543.00000
8.25000, 543.40000
8.26000, 543.50000
8.27000, 541.60000
8.28000, 541.40000
8.29000, 542.30000
8.30000, 541.90000
8.31000, 542.40000
8.32000, 542.90000
8.33000, 542.80000
8.34000, 543.70000
8.35000, 543.10000
8.36000, 542.90000
8.37000, 541.70000
8.38000, 541.80000
8.39000, 541.50000
8.40000, 542.20000
8.41000, 541.90000
8.42000, 542.10000
8.43000, 541.70000
8.44000, 541.90000
8.45000, 541.60000
8.46000, 541.90000
8.47000, 542.10000
8.48000, 541.80000
8.49000, 541.40000
8.50000, 541.40000
8.51000, 541.80000
8.52000, 541.00000
8.53000, 542.30000
8.54000, 542.00000
8.55000, 542.10000
8.56000, 541.80000
8.57000, 542.20000
8.58000, 543.00000
8.59000, 542.40000
8.60000, 543.50000
8.61000, 542.40000
8.62000, 542.40000
8.63000, 542.40000
8.64000, 542.50000
8.65000, 542.30000
8.66000, 542.90000
8.67000, 542.40000
8.68000, 543.20000
8.69000, 542.80000
8.70000, 543.30000
8.71000, 542.20000
8.72000, 541.80000
8.73000, 542.20000
8.74000, 542.10000
8.75000, 543.40000
8.76000, 542.80000
8.77000, 541.90000
8.78000, 542.00000
8.79000, 542.60000
8.80000, 543.10000
8.81000, 541.90000
8.82000, 542.00000
8.83000, 542.00000
8.84000, 541.90000
8.85000, 542.00000
8.86000, 541.80000
8.87000, 543.90000
8.88000, 543.60000
8.89000, 542.30000
8.90000, 542.00000
8.91000, 542.20000
8.92000, 543.60000
8.93000, 543.60000
8.94000, 542.90000
8.95000, 543.20000
8.96000, 542.70000
8.97000, 543.00000
8.98000, 542.50000
8.99000, 543.00000
9.00000, 542.60000
9.01000, 542.50000
9.02000, 543.20000
9.03000, 542.60000
9.04000, 543.10000
9.05000, 542.10000
9.06000, 542.50000
9.07000, 543.10000
9.08000, 543.10000
9.09000, 542.80000
9.10000, 542.90000
9.11000, 542.50000
9.12000, 543.30000
9.13000, 543.10000
9.14000, 543.90000
9.15000, 542.10000
9.16000, 542.70000
9.17000, 542.20000
9.18000, 542.10000
9.19000, 542.30000
9.20000, 541.30000
9.21000, 542.90000
9.22000, 543.20000
9.23000, 543.30000
9.24000, 542.90000
9.25000, 542.40000
9.26000, 543.70000
9.27000, 542.90000
9.28000, 542.60000
9.29000, 542.10000
9.30000, 541.90000
9.31000, 541.80000
9.32000, 541.70000
9.33000, 541.40000
9.34000, 542.80000
9.35000, 541.90000
9.36000, 542.50000
9.37000, 542.30000
9.38000, 543.30000
9.39000, 542.00000
9.40000, 541.50000
9.41000, 543.00000
9.42000, 541.70000
9.43000, 542.70000
9.44000, 542.70000
9.45000, 542.70000
9.46000, 541.70000
9.47000, 543.50000
9.48000, 542.60000
9.49000, 542.50000
9.50000, 543.00000
9.51000, 543.30000
9.52000, 542.50000
9.53000, 542.50000
9.54000, 543.00000
9.55000, 541.60000
9.56000, 542.40000
9.57000, 541.70000
9.58000, 542.10000
9.59000, 541.90000
9.60000, 541.60000
9.61000, 542.20000
9.62000, 541.50000
9.63000, 541.90000
9.64000, 542.90000
9.65000, 541.90000
9.66000, 542.90000
9.67000, 541.60000
9.68000, 542.20000
9.69000, 543.30000
9.70000, 542.90000
9.71000, 543.70000
9.72000, 542.50000
9.73000, 543.50000
9.74000, 541.80000
9.75000, 543.00000
9.76000, 542.40000
9.77000, 543.30000
9.78000, 543.40000
9.79000, 542.30000
9.80000, 543.50000
9.81000, 543.10000
9.82000, 543.30000
9.83000, 542.90000
9.84000, 543.30000
9.85000, 543.00000
9.86000, 543.30000
9.87000, 543.10000
9.88000, 543.30000
9.89000, 542.90000
9.90000, 542.90000
9.91000, 542.70000
9.92000, 543.40000
9.93000, 543.00000
9.94000, 543.00000
9.95000, 541.80000
9.96000, 542.60000
9.97000, 543.40000
9.98000, 543.10000
9.99000, 543.30000
10.00000, 542.40000
10.01000, 543.00000
10.02000, 541.60000
10.03000, 541.60000
10.04000, 541.80000
10.05000, 543.50000
10.06000, 543.20000
10.07000, 542.90000
10.08000, 542.60000
10.09000, 542.70000
10.10000, 542.80000
10.11000, 542.00000
10.12000, 542.70000
10.13000, 542.10000
10.14000, 541.70000
10.15000, 542.40000
10.16000, 543.10000
10.17000, 542.90000
10.18000, 542.50000
10.19000, 543.00000
10.20000, 542.70000
10.21000, 543.10000
10.22000, 542.90000
10.23000, 543.00000
10.24000, 542.30000
10.25000, 541.70000
10.26000, 542.20000
10.27000, 543.30000
10.28000, 542.00000
10.29000, 541.90000
10.30000, 541.90000
10.31000, 543.30000
10.32000, 543.60000
10.33000, 542.60000
10.34000, 543.30000
10.35000, 543.00000
10.36000, 543.40000
10.37000, 542.90000
10.38000, 542.80000
10.39000, 543.00000
10.40000, 543.30000
10.41000, 542.20000
10.42000, 542.30000
10.43000, 542.30000
10.44000, 541.60000
10.45000, 542.00000
10.46000, 543.70000
10.47000, 542.70000
10.48000, 542.30000
10.49000, 543.30000
10.50000, 543.00000
10.51000, 542.00000
10.52000, 542.50000
10.53000, 541.60000
10.54000, 541.90000
10.55000, 542.00000
10.56000, 541.80000
10.57000, 542.20000
10.58000, 541.80000
10.59000, 542.20000
10.60000, 542.20000
10.61000, 541.80000
10.62000, 542.20000
10.63000, 541.90000
10.64000, 542.00000
10.65000, 542.40000
10.66000, 541.90000
10.67000, 541.70000
10.68000, 543.00000
10.69000, 542.40000
10.70000, 542.70000
10.71000, 542.40000
10.72000, 542.50000
10.73000, 543.30000
10.74000, 543.00000
10.75000, 542.10000
10.76000, 543.20000
10.77000, 541.40000
10.78000, 541.70000
10.79000, 542.10000
10.80000, 541.40000
10.81000, 542.10000
10.82000, 542.20000
10.83000, 542.10000
10.84000, 541.80000
10.85000, 543.10000
10.86000, 543.50000
10.87000, 542.80000
10.88000, 543.40000
10.89000, 542.90000
10.90000, 543.10000
10.91000, 542.10000
10.92000, 543.20000
10.93000, 542.80000
10.94000, 542.90000
10.95000, 541.70000
10.96000, 541.70000
10.97000, 542.90000
10.98000, 542.20000
10.99000, 543.00000
11.00000, 541.70000
11.01000, 541.90000
11.02000, 542.60000
11.03000, 542.20000
11.04000, 541.80000
11.05000, 541.80000
11.06000, 542.70000
11.07000, 542.50000
11.08000, 543.30000
11.09000, 543.10000
11.10000, 543.20000
11.11000, 541.80000
11.12000, 541.50000
11.13000, 542.40000
11.14000, 542.00000
11.15000, 542.40000
11.16000, 541.90000
11.17000, 541.40000
11.18000, 542.60000
11.19000, 541.80000
11.20000, 541.60000
11.21000, 543.50000
11.22000, 542.40000
11.23000, 541.60000
11.24000, 543.00000
11.25000, 542.90000
11.26000, 543.30000
11.27000, 542.90000
11.28000, 543.70000
11.29000, 543.40000
11.30000, 543.20000
11.31000, 542.60000
11.32000, 543.10000
11.33000, 542.70000
11.34000, 543.90000
11.35000, 543.30000
11.36000, 542.30000
11.37000, 543.40000
11.38000, 542.80000
11.39000, 543.20000
11.40000, 542.80000
11.41000, 542.70000
11.42000, 543.20000
11.43000, 543.00000
11.44000, 543.40000
11.45000, 542.90000
11.46000, 543.30000
11.47000, 543.10000
11.48000, 542.90000
11.49000, 543.30000
11.50000, 543.00000
11.51000, 543.70000
11.52000, 543.30000
11.53000, 542.80000
11.54000, 542.00000
11.55000, 542.40000
11.56000, 543.50000
11.57000, 542.00000
11.58000, 542.20000
11.59000, 541.60000
11.60000, 542.40000
11.61000, 542.50000
11.62000, 542.20000
11.63000, 541.10000
11.64000, 541.50000
11.65000, 542.80000
11.66000, 542.20000
11.67000, 543.40000
11.68000, 543.50000
11.69000, 541.90000
11.70000, 542.00000
11.71000, 542.20000
11.72000, 541.60000
11.73000, 541.50000
11.74000, 541.70000
11.75000, 541.30000
11.76000, 541.40000
11.77000, 542.50000
11.78000, 542.80000
11.79000, 542.70000
11.80000, 542.50000
11.81000, 542.40000
11.82000, 541.90000
11.83000, 542.40000
11.84000, 542.20000
11.85000, 542.10000
11.86000, 543.40000
11.87000, 542.90000
11.88000, 542.50000
11.89000, 542.10000
11.90000, 543.30000
11.91000, 541.20000
11.92000, 541.90000
11.93000, 542.50000
11.94000, 542.00000
11.95000, 542.00000
11.96000, 542.20000
11.97000, 541.80000
11.98000, 542.10000
11.99000, 542.10000
12.00000, 541.70000
12.01000, 541.80000
12.02000, 542.00000
12.03000, 543.00000
12.04000, 541.90000
12.05000, 542.90000
12.06000, 543.30000
12.07000, 542.70000
12.08000, 543.80000
12.09000, 542.80000
12.10000, 542.50000
12.11000, 543.10000
12.12000, 543.10000
12.13000, 542.40000
12.14000, 543.00000
12.15000, 542.30000
12.16000, 543.10000
12.17000, 543.20000
12.18000, 543.00000
12.19000, 542.00000
12.20000, 541.50000
12.21000, 541.60000
12.22000, 542.50000
12.23000, 542.70000
12.24000, 542.20000
12.25000, 543.30000
12.26000, 543.20000
12.27000, 543.50000
12.28000, 542.20000
12.29000, 541.50000
12.30000, 542.00000
12.31000, 542.10000
12.32000, 541.10000
12.33000, 542.20000
12.34000, 543.20000
12.35000, 542.20000
12.36000, 542.90000
12.37000, 542.90000
12.38000, 542.90000
12.39000, 542.80000
12.40000, 542.90000
12.41000, 542.80000
12.42000, 542.80000
12.43000, 543.00000
12.44000, 543.10000
12.45000, 543.00000
12.46000, 542.60000
12.47000, 542.10000
12.48000, 542.10000
12.49000, 541.30000
12.50000, 541.90000
12.51000, 542.80000
12.52000, 542.80000
12.53000, 542.90000
12.54000, 543.20000
12.55000, 542.70000
12.56000, 541.90000
12.57000, 541.70000
12.58000, 542.50000
12.59000, 542.90000
12.60000, 542.90000
12.61000, 543.50000
12.62000, 543.00000
12.63000, 543.90000
12.64000, 543.10000
12.65000, 543.50000
12.66000, 543.50000
12.67000, 542.00000
12.68000, 542.50000
12.69000, 542.70000
12.70000, 543.10000
12.71000, 542.60000
12.72000, 543.80000
12.73000, 543.20000
12.74000, 542.00000
12.75000, 541.60000
12.76000, 541.90000
12.77000, 542.00000
12.78000, 542.20000
12.79000, 541.40000
12.80000, 542.20000
12.81000, 542.90000
12.82000, 541.40000
12.83000, 541.80000
12.84000, 541.90000
12.85000, 541.90000
12.86000, 541.80000
12.87000, 542.60000
12.88000, 543.40000
12.89000, 543.10000
12.90000, 543.50000
12.91000, 543.60000
12.92000, 542.70000
12.93000, 541.80000
12.94000, 543.30000
12.95000, 542.30000
12.96000, 542.80000
12.97000, 543.00000
12.98000, 543.40000
12.99000, 542.90000
13.00000, 542.90000
13.01000, 542.00000
13.02000, 541.70000
13.03000, 543.40000
13.04000, 542.60000
13.05000, 541.80000
13.06000, 542.70000
13.07000, 542.80000
13.08000, 543.20000
13.09000, 542.70000
13.10000, 543.20000
13.11000, 542.90000
13.12000, 543.30000
13.13000, 543.30000
13.14000, 543.10000
13.15000, 543.10000
13.16000, 543.60000
13.17000, 543.50000
13.18000, 543.30000
13.19000, 542.80000
13.20000, 543.00000
13.21000, 542.30000
13.22000, 542.70000
13.23000, 542.90000
13.24000, 542.40000
13.25000, 541.60000
13.26000, 542.40000
13.27000, 541.70000
13.28000, 541.70000
13.29000, 542.10000
13.30000, 543.20000
13.31000, 542.60000
13.32000, 542.80000
13.33000, 541.40000
13.34000, 541.10000
13.35000, 541.90000
13.36000, 542.00000
13.37000, 542.40000
13.38000, 542.50000
13.39000, 541.80000
13.40000, 542.20000
13.41000, 542.20000
13.42000, 541.60000
13.43000, 542.40000
13.44000, 542.60000
13.45000, 543.40000
13.46000, 543.30000
13.47000, 542.60000
13.48000, 542.90000
13.49000, 542.90000
13.50000, 542.60000
13.51000, 543.80000
13.52000, 542.90000
13.53000, 543.50000
13.54000, 543.30000
13.55000, 542.90000
13.56000, 542.10000
13.57000, 543.00000
13.58000, 542.20000
13.59000, 542.90000
13.60000, 543.10000
13.61000, 542.50000
13.62000, 541.40000
13.63000, 543.20000
13.64000, 542.20000
13.65000, 543.50000
13.66000, 542.70000
13.67000, 543.30000
13.68000, 543.30000
13.69000, 542.80000
13.70000, 542.20000
13.71000, 542.30000
13.72000, 541.80000
13.73000, 543.10000
13.74000, 542.60000
13.75000, 542.00000
13.76000, 541.60000
13.77000, 541.30000
13.78000, 542.90000
13.79000, 543.30000
13.80000, 542.60000
13.81000, 542.10000
13.82000, 542.00000
13.83000, 542.10000
13.84000, 541.70000
13.85000, 542.10000
13.86000, 542.20000
13.87000, 541.80000
13.88000, 542.10000
13.89000, 541.90000
13.90000, 542.60000
13.91000, 542.00000
13.92000, 542.30000
13.93000, 542.20000
13.94000, 542.00000
13.95000, 541.90000
13.96000, 542.50000
13.97000, 542.10000
13.98000, 542.00000
13.99000, 541.70000
14.00000, 542.00000
14.01000, 541.60000
14.02000, 543.10000
14.03000, 541.70000
14.04000, 542.10000
14.05000, 543.50000
14.06000, 542.80000
14.07000, 542.60000
14.08000, 543.10000
14.09000, 543.30000
14.10000, 542.90000
14.11000, 543.20000
14.12000, 543.10000
14.13000, 542.80000
14.14000, 543.10000
14.15000, 542.90000
14.16000, 543.10000
14.17000, 542.80000
14.18000, 542.90000
14.19000, 543.10000
14.20000, 542.90000
14.21000, 543.20000
14.22000, 542.80000
14.23000, 542.90000
14.24000, 542.80000
14.25000, 543.00000
14.26000, 543.20000
14.27000, 543.00000
14.28000, 542.70000
14.29000, 541.70000
14.30000, 542.20000
14.31000, 541.60000
14.32000, 542.30000
14.33000, 542.00000
14.34000, 543.00000
14.35000, 543.10000
14.36000, 543.20000
14.37000, 543.30000
14.38000, 542.60000
14.39000, 542.60000
14.40000, 542.90000
14.41000, 542.80000
14.42000, 542.20000
14.43000, 542.40000
14.44000, 543.00000
14.45000, 543.20000
14.46000, 541.90000
14.47000, 542.50000
14.48000, 542.80000
14.49000, 542.70000
14.50000, 542.10000
14.51000, 541.50000
14.52000, 542.00000
14.53000, 542.40000
14.54000, 541.90000
14.55000, 541.90000
14.56000, 541.30000
14.57000, 543.10000
14.58000, 542.90000
14.59000, 542.40000
14.60000, 543.10000
14.61000, 543.00000
14.62000, 542.80000
14.63000, 542.50000
14.64000, 541.80000
14.65000, 542.00000
14.66000, 542.00000
14.67000, 542.80000
14.68000, 542.90000
14.69000, 542.50000
14.70000, 542.20000
14.71000, 542.20000
14.72000, 543.20000
14.73000, 542.40000
14.74000, 543.00000
14.75000, 542.90000
14.76000, 542.90000
14.77000, 543.30000
14.78000, 542.50000
14.79000, 543.60000
14.80000, 543.10000
14.81000, 542.40000
14.82000, 543.10000
14.83000, 542.70000
14.84000, 543.20000
14.85000, 542.10000
14.86000, 541.60000
14.87000, 542.30000
14.88000, 541.50000
14.89000, 543.00000
14.90000, 543.10000
14.91000, 541.90000
14.92000, 542.00000
14.93000, 543.40000
14.94000, 542.80000
14.95000, 542.80000
14.96000, 541.50000
14.97000, 543.00000
14.98000, 543.20000
14.99000, 542.90000
15.00000, 542.80000
15.01000, 543.30000
15.02000, 542.80000
15.03000, 542.80000
15.04000, 541.50000
15.05000, 541.80000
15.06000, 542.80000
15.07000, 543.40000
15.08000, 543.10000
15.09000, 543.10000
15.10000, 542.40000
15.11000, 543.10000
15.12000, 543.00000
15.13000, 543.50000
15.14000, 542.00000
15.15000, 542.40000
15.16000, 541.60000
15.17000, 541.80000
15.18000, 541.80000
15.19000, 543.50000
15.20000, 543.10000
15.21000, 542.00000
15.22000, 542.20000
15.23000, 541.50000
15.24000, 542.10000
15.25000, 542.40000
15.26000, 542.10000
15.27000, 542.00000
15.28000, 542.10000
15.29000, 542.00000
15.30000, 542.00000
15.31000, 541.10000
15.32000, 542.20000
15.33000, 542.40000
15.34000, 541.60000
15.35000, 542.30000
15.36000, 541.90000
15.37000, 541.50000
15.38000, 542.70000
15.39000, 542.60000
15.40000, 543.50000
15.41000, 541.40000
15.42000, 543.40000
15.43000, 542.70000
15.44000, 543.10000
15.45000, 541.90000
15.46000, 543.00000
15.47000, 541.60000
15.48000, 542.40000
15.49000, 541.40000
15.50000, 542.10000
15.51000, 541.80000
15.52000, 541.60000
15.53000, 542.40000
15.54000, 542.30000
15.55000, 543.50000
15.56000, 541.90000
15.57000, 542.40000
15.58000, 542.70000
15.59000, 542.20000
15.60000, 541.90000
15.61000, 542.80000
15.62000, 542.90000
15.63000, 543.50000
15.64000, 542.40000
15.65000, 542.90000
15.66000, 543.50000
15.67000, 543.00000
15.68000, 543.20000
15.69000, 543.30000
15.70000, 543.30000
15.71000, 542.80000
15.72000, 543.00000
15.73000, 542.20000
15.74000, 542.00000
15.75000, 542.50000
15.76000, 542.80000
15.77000, 542.70000
15.78000, 542.70000
15.79000, 542.80000
15.80000, 542.20000
15.81000, 543.00000
15.82000, 543.20000
15.83000, 542.70000
15.84000, 543.10000
15.85000, 543.30000
15.86000, 543.10000
15.87000, 541.30000
15.88000, 541.50000
15.89000, 541.80000
15.90000, 542.30000
15.91000, 542.40000
15.92000, 542.30000
15.93000, 542.20000
15.94000, 541.90000
15.95000, 542.00000
15.96000, 541.90000
15.97000, 541.80000
15.98000, 541.70000
15.99000, 542.00000
16.00000, 542.10000
16.01000, 542.20000
16.02000, 541.70000
16.03000, 541.60000
16.04000, 543.10000
16.05000, 542.90000
16.06000, 543.00000
16.07000, 542.80000
16.08000, 543.30000
16.09000, 542.50000
16.10000, 542.30000
16.11000, 543.10000
16.12000, 541.90000
16.13000, 542.10000
16.14000, 542.30000
16.15000, 542.10000
16.16000, 542.30000
16.17000, 541.90000
16.18000, 543.20000
16.19000, 542.30000
16.20000, 542.40000
16.21000, 542.80000
16.22000, 542.80000
16.23000, 542.00000
16.24000, 542.10000
16.25000, 542.50000
16.26000, 542.80000
16.27000, 541.90000
16.28000, 541.70000
16.29000, 542.20000
16.30000, 541.60000
16.31000, 542.60000
16.32000, 541.90000
16.33000, 541.50000
16.34000, 543.20000
16.35000, 542.90000
16.36000, 542.10000
16.37000, 542.90000
16.38000, 543.00000
16.39000, 543.20000
16.40000, 543.60000
16.41000, 542.60000
16.42000, 542.50000
16.43000, 543.60000
16.44000, 541.60000
16.45000, 542.50000
16.46000, 541.80000
16.47000, 542.30000
16.48000, 542.80000
16.49000, 542.30000
16.50000, 542.80000
16.51000, 542.30000
16.52000, 543.30000
16.53000, 543.20000
16.54000, 543.40000
16.55000, 542.10000
16.56000, 541.80000
16.57000, 541.90000
16.58000, 542.10000
16.59000, 541.60000
16.60000, 541.60000
16.61000, 543.00000
16.62000, 542.70000
16.63000, 542.10000
16.64000, 542.20000
16.65000, 542.00000
16.66000, 542.10000
16.67000, 543.00000
16.68000, 543.40000
16.69000, 542.90000
16.70000, 541.80000
16.71000, 541.40000
16.72000, 542.00000
16.73000, 542.10000
16.74000, 541.60000
16.75000, 541.80000
16.76000, 541.80000
16.77000, 542.20000
16.78000, 542.20000
16.79000, 542.50000
16.80000, 542.30000
16.81000, 542.10000
16.82000, 543.00000
16.83000, 543.50000
16.84000, 541.80000
16.85000, 541.50000
16.86000, 541.60000
16.87000, 541.80000
16.88000, 541.70000
16.89000, 541.80000
16.90000, 541.30000
16.91000, 543.40000
16.92000, 543.40000
16.93000, 543.60000
16.94000, 542.70000
16.95000, 543.10000
16.96000, 543.40000
16.97000, 543.40000
16.98000, 542.30000
16.99000, 541.40000
17.00000, 541.60000
17.01000, 542.80000
17.02000, 542.00000
17.03000, 541.40000
17.04000, 541.70000
17.05000, 542.30000
17.06000, 543.10000
17.07000, 542.40000
17.08000, 543.30000
17.09000, 543.30000
17.10000, 543.20000
17.11000, 541.90000
17.12000, 542.10000
17.13000, 541.70000
17.14000, 542.70000
17.15000, 542.00000
17.16000, 543.10000
17.17000, 543.00000
17.18000, 543.60000
17.19000, 543.00000
17.20000, 543.10000
17.21000, 543.20000
17.22000, 542.10000
17.23000, 541.80000
17.24000, 542.20000
17.25000, 541.70000
17.26000, 541.30000
17.27000, 542.40000
17.28000, 541.80000
17.29000, 542.20000
17.30000, 542.10000
17.31000, 541.80000
17.32000, 542.20000
17.33000, 542.20000
17.34000, 542.10000
17.35000, 542.10000
17.36000, 542.70000
17.37000, 541.50000
17.38000, 542.80000
17.39000, 542.20000
17.40000, 543.30000
17.41000, 543.20000
17.42000, 542.30000
17.43000, 543.00000
17.44000, 542.90000
17.45000, 543.40000
17.46000, 543.00000
17.47000, 543.00000
17.48000, 542.90000
17.49000, 543.50000
17.50000, 542.70000
17.51000, 542.20000
17.52000, 542.10000
17.53000, 541.80000
17.54000, 541.30000
17.55000, 541.50000
17.56000, 541.80000
17.57000, 542.60000
17.58000, 542.30000
17.59000, 542.50000
17.60000, 542.90000
17.61000, 543.00000
17.62000, 542.20000
17.63000, 542.90000
17.64000, 542.40000
17.65000, 542.10000
17.66000, 542.00000
17.67000, 543.10000
17.68000, 542.30000
17.69000, 542.30000
17.70000, 542.40000
17.71000, 542.00000
17.72000, 540.80000
17.73000, 541.90000
17.74000, 542.30000
17.75000, 542.30000
17.76000, 542.00000
17.77000, 542.70000
17.78000, 543.40000
17.79000, 542.80000
17.80000, 542.00000
17.81000, 542.20000
17.82000, 542.30000
17.83000, 541.60000
17.84000, 541.30000
17.85000, 542.10000
17.86000, 542.40000
17.87000, 541.70000
17.88000, 542.10000
17.89000, 543.10000
17.90000, 543.40000
17.91000, 543.70000
17.92000, 543.20000
17.93000, 542.90000
17.94000, 543.40000
17.95000, 543.20000
17.96000, 541.70000
17.97000, 542.00000
17.98000, 543.10000
17.99000, 543.10000
18.00000, 543.60000
18.01000, 541.70000
18.02000, 542.30000
18.03000, 541.50000
18.04000, 542.00000
18.05000, 542.00000
18.06000, 541.90000
18.07000, 542.50000
18.08000, 541.50000
18.09000, 542.20000
18.10000, 542.60000
18.11000, 543.10000
18.12000, 543.20000
18.13000, 541.80000
18.14000, 541.70000
18.15000, 543.70000
18.16000, 542.50000
18.17000, 541.60000
18.18000, 541.80000
18.19000, 541.70000
18.20000, 541.90000
18.21000, 542.10000
18.22000, 542.80000
18.23000, 543.20000
18.24000, 542.50000
18.25000, 543.10000
18.26000, 542.90000
18.27000, 541.70000
18.28000, 542.40000
18.29000, 543.10000
18.30000, 543.40000
18.31000, 543.30000
18.32000, 543.20000
18.33000, 542.90000
18.34000, 543.30000
18.35000, 543.10000
18.36000, 543.40000
18.37000, 543.00000
18.38000, 543.10000
18.39000, 542.10000
18.40000, 542.20000
18.41000, 542.30000
18.42000, 542.20000
18.43000, 543.00000
18.44000, 543.50000
18.45000, 542.90000
18.46000, 543.20000
18.47000, 542.50000
18.48000, 542.00000
18.49000, 541.80000
18.50000, 542.00000
18.51000, 541.90000
18.52000, 542.50000
18.53000, 542.00000
18.54000, 542.00000
18.55000, 541.90000
18.56000, 542.10000
18.57000, 541.10000
18.58000, 542.10000
18.59000, 541.60000
18.60000, 542.10000
18.61000, 542.00000
18.62000, 541.80000
18.63000, 543.00000
18.64000, 543.30000
18.65000, 541.50000
18.66000, 542.20000
18.67000, 542.60000
18.68000, 541.90000
18.69000, 542.20000
18.70000, 541.90000
18.71000, 542.20000
18.72000, 542.30000
18.73000, 543.70000
18.74000, 542.50000
18.75000, 541.90000
18.76000, 541.60000
18.77000, 543.10000
18.78000, 543.30000
18.79000, 542.50000
18.80000, 543.00000
18.81000, 542.60000
18.82000, 543.10000
18.83000, 543.10000
18.84000, 543.50000
18.85000, 541.40000
18.86000, 542.00000
18.87000, 542.20000
18.88000, 542.20000
18.89000, 542.60000
18.90000, 542.30000
18.91000, 542.90000
18.92000, 542.50000
18.93000, 542.90000
18.94000, 542.60000
18.95000, 543.10000
18.96000, 542.30000
18.97000, 542.70000
18.98000, 542.10000
18.99000, 541.60000
19.00000, 541.60000
19.01000, 543.00000
19.02000, 543.10000
19.03000, 543.20000
19.04000, 542.60000
19.05000, 543.00000
19.06000, 542.80000
19.07000, 541.80000
19.08000, 541.50000
19.09000, 543.20000
19.10000, 542.60000
19.11000, 543.40000
19.12000, 542.00000
19.13000, 542.40000
19.14000, 542.50000
19.15000, 542.70000
19.16000, 543.10000
19.17000, 542.10000
19.18000, 541.60000
19.19000, 542.60000
19.20000, 542.60000
19.21000, 542.40000
19.22000, 542.30000
19.23000, 542.30000
19.24000, 541.80000
19.25000, 542.40000
19.26000, 542.20000
19.27000, 542.70000
19.28000, 543.70000
19.29000, 541.60000
19.30000, 542.20000
19.31000, 542.10000
19.32000, 542.00000
19.33000, 542.10000
19.34000, 542.00000
19.35000, 542.30000
19.36000, 542.40000
19.37000, 542.10000
19.38000, 542.00000
19.39000, 542.30000
19.40000, 542.10000
19.41000, 542.50000
19.42000, 542.30000
19.43000, 542.10000
19.44000, 541.80000
19.45000, 541.80000
19.46000, 541.90000
19.47000, 542.60000
19.48000, 542.40000
19.49000, 543.00000
19.50000, 542.60000
19.51000, 542.70000
19.52000, 542.60000
19.53000, 541.90000
19.54000, 541.50000
19.55000, 543.10000
19.56000, 543.40000
19.57000, 542.40000
19.58000, 541.60000
19.59000, 543.20000
19.60000, 542.20000
19.61000, 543.50000
19.62000, 542.00000
19.63000, 542.60000
19.64000, 542.80000
19.65000, 543.40000
19.66000, 542.90000
19.67000, 543.10000
19.68000, 542.10000
19.69000, 542.90000
19.70000, 542.60000
19.71000, 543.30000
19.72000, 543.10000
19.73000, 542.60000
19.74000, 542.90000
19.75000, 543.10000
19.76000, 543.30000
19.77000, 542.30000
19.78000, 542.70000
19.79000, 542.10000
19.80000, 542.20000
19.81000, 543.00000
19.82000, 543.10000
19.83000, 543.40000
19.84000, 543.40000
19.85000, 542.10000
19.86000, 542.90000
19.87000, 541.90000
19.88000, 542.20000
19.89000, 541.10000
19.90000, 542.20000
19.91000, 543.00000
19.92000, 542.30000
19.93000, 543.00000
19.94000, 542.40000
19.95000, 542.40000
19.96000, 542.20000
19.97000, 542.20000
19.98000, 542.50000
19.99000, 541.50000
20.00000, 542.60000
20.01000, 542.50000
20.02000, 542.40000
20.03000, 542.20000
20.04000, 541.90000
20.05000, 541.90000
20.06000, 542.50000
20.07000, 542.90000
20.08000, 542.80000
20.09000, 541.80000
20.10000, 542.90000
20.11000, 543.00000
20.12000, 542.30000
20.13000, 542.90000
20.14000, 542.70000
20.15000, 543.00000
20.16000, 542.70000
20.17000, 542.30000
20.18000, 543.00000
20.19000, 543.10000
20.20000, 542.50000
20.21000, 542.70000
20.22000, 542.70000
20.23000, 543.00000
20.24000, 543.10000
20.25000, 543.60000
20.26000, 542.00000
20.27000, 541.70000
20.28000, 542.50000
20.29000, 542.40000
20.30000, 542.00000
20.31000, 542.60000
20.32000, 542.00000
20.33000, 542.10000
20.34000, 542.60000
20.35000, 541.80000
20.36000, 541.90000
20.37000, 541.80000
20.38000, 542.20000
20.39000, 543.00000
20.40000, 543.20000
20.41000, 543.00000
20.42000, 543.10000
20.43000, 543.00000
20.44000, 542.90000
20.45000, 542.70000
20.46000, 543.70000
20.47000, 543.00000
20.48000, 543.50000
20.49000, 543.70000
20.50000, 543.20000
20.51000, 543.20000
20.52000, 543.00000
20.53000, 541.70000
20.54000, 542.10000
20.55000, 542.20000
20.56000, 541.40000
20.57000, 543.30000
20.58000, 543.20000
20.59000, 542.50000
20.60000, 542.50000
20.61000, 543.10000
20.62000, 542.30000
20.63000, 542.10000
20.64000, 542.00000
20.65000, 542.50000
20.66000, 541.60000
20.67000, 542.90000
20.68000, 543.50000
20.69000, 542.90000
20.70000, 541.80000
20.71000, 542.40000
20.72000, 542.80000
20.73000, 542.30000
20.74000, 542.70000
20.75000, 541.40000
20.76000, 542.00000
20.77000, 542.40000
20.78000, 541.90000
20.79000, 541.70000
20.80000, 542.40000
20.81000, 542.50000
20.82000, 541.90000
20.83000, 542.60000
20.84000, 542.40000
20.85000, 542.80000
20.86000, 541.60000
20.87000, 541.70000
20.88000, 542.00000
20.89000, 542.40000
20.90000, 543.10000
20.91000, 541.80000
20.92000, 542.60000
20.93000, 542.00000
20.94000, 543.20000
20.95000, 543.20000
20.96000, 541.60000
20.97000, 542.20000
20.98000, 542.00000
20.99000, 543.00000
21.00000, 542.80000
21.01000, 541.50000
21.02000, 541.90000
21.03000, 542.00000
21.04000, 543.30000
21.05000, 542.70000
21.06000, 543.70000
21.07000, 542.30000
21.08000, 542.40000
21.09000, 541.90000
21.10000, 541.60000
21.11000, 542.30000
21.12000, 543.10000
21.13000, 542.70000
21.14000, 543.10000
21.15000, 543.20000
21.16000, 542.90000
21.17000, 543.20000
21.18000, 543.20000
21.19000, 542.90000
21.20000, 543.10000
21.21000, 543.30000
21.22000, 543.10000
21.23000, 542.70000
21.24000, 542.70000
21.25000, 542.70000
21.26000, 543.00000
21.27000, 542.50000
21.28000, 543.30000
21.29000, 543.40000
21.30000, 542.90000
21.31000, 543.00000
21.32000, 542.70000
21.33000, 543.50000
21.34000, 542.80000
21.35000, 542.50000
21.36000, 541.60000
21.37000, 542.80000
21.38000, 542.50000
21.39000, 541.40000
21.40000, 541.40000
21.41000, 542.20000
21.42000, 543.50000
21.43000, 542.70000
21.44000, 544.20000
21.45000, 542.70000
21.46000, 542.30000
21.47000, 541.90000
21.48000, 543.00000
21.49000, 542.20000
21.50000, 543.20000
21.51000, 542.90000
21.52000, 543.00000
21.53000, 542.80000
21.54000, 543.00000
21.55000, 542.00000
21.56000, 542.10000
21.57000, 542.70000
21.58000, 542.10000
21.59000, 541.30000
21.60000, 543.00000
21.61000, 543.30000
21.62000, 543.00000
21.63000, 542.30000
21.64000, 543.00000
21.65000, 543.30000
21.66000, 542.60000
21.67000, 543.10000
21.68000, 543.20000
21.69000, 543.10000
21.70000, 543.50000
21.71000, 542.90000
21.72000, 543.00000
21.73000, 543.60000
21.74000, 542.80000
21.75000, 542.70000
21.76000, 541.70000
21.77000, 542.20000
21.78000, 542.20000
21.79000, 542.00000
21.80000, 541.50000
21.81000, 542.10000
21.82000, 542.50000
21.83000, 541.50000
21.84000, 543.50000
21.85000, 543.20000
21.86000, 543.20000
21.87000, 542.70000
21.88000, 542.10000
21.89000, 543.60000
21.90000, 543.40000
21.91000, 542.80000
21.92000, 542.80000
21.93000, 542.90000
21.94000, 542.30000
21.95000, 543.70000
21.96000, 543.20000
21.97000, 543.20000
21.98000, 543.10000
21.99000, 543.10000
22.00000, 542.70000
22.01000, 541.90000
22.02000, 542.00000
22.03000, 542.70000
22.04000, 541.90000
22.05000, 542.10000
22.06000, 541.80000
22.07000, 541.50000
22.08000, 543.10000
22.09000, 543.00000
22.10000, 541.40000
22.11000, 542.30000
22.12000, 542.10000
22.13000, 541.70000
22.14000, 542.00000
22.15000, 542.10000
22.16000, 541.90000
22.17000, 542.00000
22.18000, 541.90000
22.19000, 542.20000
22.20000, 543.10000
22.21000, 543.00000
22.22000, 541.80000
22.23000, 542.20000
22.24000, 541.40000
22.25000, 542.20000
22.26000, 542.20000
22.27000, 542.40000
22.28000, 542.90000
22.29000, 541.60000
22.30000, 542.00000
22.31000, 542.30000
22.32000, 541.40000
22.33000, 542.30000
22.34000, 542.50000
22.35000, 543.70000
22.36000, 543.00000
22.37000, 543.30000
22.38000, 542.90000
22.39000, 542.70000
22.40000, 543.20000
22.41000, 543.20000
22.42000, 542.60000
22.43000, 542.90000
22.44000, 542.30000
22.45000, 542.30000
22.46000, 543.60000
22.47000, 543.40000
22.48000, 542.60000
22.49000, 542.00000
22.50000, 541.70000
22.51000, 542.10000
22.52000, 542.00000
22.53000, 541.90000
22.54000, 542.00000
22.55000, 543.30000
22.56000, 542.20000
22.57000, 543.30000
22.58000, 543.10000
22.59000, 542.80000
22.60000, 543.40000
22.61000, 542.10000
22.62000, 542.00000
22.63000, 543.10000
22.64000, 543.10000
22.65000, 542.90000
22.66000, 543.80000
22.67000, 543.40000
22.68000, 542.70000
22.69000, 542.20000
22.70000, 542.00000
22.71000, 542.30000
22.72000, 541.40000
22.73000, 542.10000
22.74000, 542.00000
22.75000, 541.90000
22.76000, 542.00000
22.77000, 541.60000
22.78000, 542.20000
22.79000, 542.10000
22.80000, 542.20000
22.81000, 541.80000
22.82000, 542.30000
22.83000, 542.20000
22.84000, 541.60000
22.85000, 542.20000
22.86000, 542.10000
22.87000, 541.80000
22.88000, 542.50000
22.89000, 541.90000
22.90000, 542.50000
22.91000, 541.40000
22.92000, 543.00000
22.93000, 543.00000
22.94000, 543.00000
22.95000, 543.20000
22.96000, 541.80000
22.97000, 541.90000
22.98000, 542.00000
22.99000, 542.50000
23.00000, 541.70000
23.01000, 542.20000
23.02000, 541.50000
23.03000, 543.10000
23.04000, 543.10000
23.05000, 542.70000
23.06000, 543.30000
23.07000, 543.60000
23.08000, 542.50000
23.09000, 541.70000
23.10000, 542.00000
23.11000, 541.80000
23.12000, 542.80000
23.13000, 541.80000
23.14000, 541.60000
23.15000, 541.70000
23.16000, 542.30000
23.17000, 543.00000
23.18000, 543.60000
23.19000, 542.50000
23.20000, 541.90000
23.21000, 541.90000
23.22000, 542.60000
23.23000, 542.20000
23.24000, 541.70000
23.25000, 542.40000
23.26000, 542.00000
23.27000, 543.00000
23.28000, 542.60000
23.29000, 543.60000
23.30000, 542.40000
23.31000, 543.40000
23.32000, 542.20000
23.33000, 542.60000
23.34000, 542.10000
23.35000, 542.00000
23.36000, 543.30000
23.37000, 543.30000
23.38000, 542.80000
23.39000, 542.30000
23.40000, 543.10000
23.41000, 542.90000
23.42000, 541.50000
23.43000, 542.70000
23.44000, 542.00000
23.45000, 541.80000
23.46000, 542.70000
23.47000, 541.50000
23.48000, 542.00000
23.49000, 541.90000
23.50000, 542.50000
23.51000, 542.70000
23.52000, 542.00000
23.53000, 542.80000
23.54000, 543.00000
23.55000, 542.20000
23.56000, 542.20000
23.57000, 542.00000
23.58000, 541.70000
23.59000, 541.80000
23.60000, 542.50000
23.61000, 541.90000
23.62000, 542.20000
23.63000, 542.40000
23.64000, 543.80000
23.65000, 542.40000
23.66000, 542.30000
23.67000, 542.90000
23.68000, 543.10000
23.69000, 542.50000
23.70000, 542.90000
23.71000, 541.90000
23.72000, 543.40000
23.73000, 543.80000
23.74000, 542.80000
23.75000, 542.70000
23.76000, 543.10000
23.77000, 543.10000
23.78000, 543.10000
23.79000, 542.00000
23.80000, 543.50000
23.81000, 543.50000
23.82000, 543.30000
23.83000, 542.90000
23.84000, 543.10000
23.85000, 541.90000
23.86000, 541.80000
23.87000, 542.10000
23.88000, 543.10000
23.89000, 542.80000
23.90000, 541.90000
23.91000, 542.80000
23.92000, 542.80000
23.93000, 543.30000
23.94000, 543.60000
23.95000, 542.80000
23.96000, 542.40000
23.97000, 541.80000
23.98000, 543.30000
23.99000, 543.00000
24.00000, 543.20000
24.01000, 543.00000
24.02000, 543.30000
24.03000, 542.80000
24.04000, 541.90000
24.05000, 542.20000
24.06000, 543.40000
24.07000, 542.70000
24.08000, 542.60000
24.09000, 543.40000
24.10000, 542.80000
24.11000, 543.10000
24.12000, 542.70000
24.13000, 542.20000
24.14000, 542.40000
24.15000, 541.80000
24.16000, 542.20000
24.17000, 542.50000
24.18000, 542.30000
24.19000, 543.70000
24.20000, 542.90000
24.21000, 543.00000
24.22000, 542.30000
24.23000, 543.30000
24.24000, 543.10000
24.25000, 543.20000
24.26000, 542.90000
24.27000, 543.60000
24.28000, 542.70000
24.29000, 541.60000
24.30000, 542.10000
24.31000, 541.60000
24.32000, 542.50000
24.33000, 541.80000
24.34000, 542.70000
24.35000, 541.70000
24.36000, 542.90000
24.37000, 543.20000
24.38000, 542.40000
24.39000, 543.10000
24.40000, 542.30000
24.41000, 542.30000
24.42000, 543.00000
24.43000, 543.20000
24.44000, 542.40000
24.45000, 542.10000
24.46000, 543.20000
24.47000, 543.70000
24.48000, 543.10000
24.49000, 542.20000
24.50000, 542.10000
24.51000, 542.60000
24.52000, 543.20000
24.53000, 542.80000
24.54000, 543.50000
24.55000, 542.00000
24.56000, 542.10000
24.57000, 541.80000
24.58000, 542.30000
24.59000, 542.70000
24.60000, 543.00000
24.61000, 542.00000
24.62000, 543.20000
24.63000, 543.10000
24.64000, 542.50000
24.65000, 542.70000
24.66000, 542.80000
24.67000, 542.90000
24.68000, 542.80000
24.69000, 544.00000
24.70000, 542.20000
24.71000, 541.90000
24.72000, 543.00000
24.73000, 542.70000
24.74000, 543.40000
24.75000, 543.20000
24.76000, 542.60000
24.77000, 542.20000
24.78000, 542.00000
24.79000, 542.60000
24.80000, 543.50000
24.81000, 542.70000
24.82000, 543.00000
24.83000, 542.80000
24.84000, 542.80000
24.85000, 542.80000
24.86000, 542.20000
24.87000, 542.90000
24.88000, 542.60000
24.89000, 543.30000
24.90000, 543.50000
24.91000, 542.40000
24.92000, 542.20000
24.93000, 542.10000
24.94000, 543.60000
24.95000, 543.30000
24.96000, 541.60000
24.97000, 541.90000
24.98000, 542.40000
24.99000, 541.40000
25.00000, 542.20000
25.01000, 542.10000
25.02000, 542.10000
25.03000, 543.10000
25.04000, 542.80000
25.05000, 543.90000
25.06000, 542.60000
25.07000, 543.70000
25.08000, 543.60000
25.09000, 542.70000
25.10000, 542.10000
25.11000, 542.00000
25.12000, 542.00000
25.13000, 542.20000
25.14000, 542.10000
25.15000, 541.80000
25.16000, 541.80000
25.17000, 542.40000
25.18000, 541.60000
25.19000, 541.80000
25.20000, 542.40000
25.21000, 542.50000
25.22000, 542.70000
25.23000, 543.50000
25.24000, 541.40000
25.25000, 542.30000
25.26000, 542.10000
25.27000, 541.80000
25.28000, 542.00000
25.29000, 541.90000
25.30000, 542.20000
25.31000, 542.60000
25.32000, 541.70000
25.33000, 542.40000
25.34000, 541.80000
25.35000, 542.60000
25.36000, 542.60000
25.37000, 542.30000
25.38000, 542.70000
25.39000, 542.20000
25.40000, 541.90000
25.41000, 541.70000
25.42000, 542.00000
25.43000, 541.80000
25.44000, 542.50000
25.45000, 543.50000
25.46000, 541.10000
25.47000, 542.00000
25.48000, 541.90000
25.49000, 542.80000
25.50000, 542.80000
25.51000, 541.90000
25.52000, 542.40000
25.53000, 542.20000
25.54000, 542.50000
25.55000, 542.20000
25.56000, 542.40000
25.57000, 542.20000
25.58000, 542.30000
25.59000, 542.40000
25.60000, 542.10000
25.61000, 541.60000
25.62000, 542.40000
25.63000, 542.30000
25.64000, 542.20000
25.65000, 543.40000
25.66000, 543.20000
25.67000, 543.10000
25.68000, 542.60000
25.69000, 542.30000
25.70000, 542.90000
25.71000, 542.00000
25.72000, 541.60000
25.73000, 543.50000
25.74000, 543.00000
25.75000, 543.20000
25.76000, 543.20000
25.77000, 542.80000
25.78000, 543.20000
25.79000, 543.40000
25.80000, 542.80000
25.81000, 541.30000
25.82000, 542.10000
25.83000, 542.90000
25.84000, 542.70000
25.85000, 543.30000
25.86000, 542.90000
25.87000, 542.90000
25.88000, 542.30000
25.89000, 542.40000
25.90000, 542.60000
25.91000, 543.00000
25.92000, 542.30000
25.93000, 541.70000
25.94000, 541.40000
25.95000, 541.80000
25.96000, 542.70000
25.97000, 541.90000
25.98000, 542.50000
25.99000, 542.80000
26.00000, 542.20000
26.01000, 543.00000
26.02000, 542.50000
26.03000, 541.90000
26.04000, 541.90000
26.05000, 543.00000
26.06000, 542.50000
26.07000, 542.30000
26.08000, 542.00000
26.09000, 542.30000
26.10000, 542.90000
26.11000, 542.20000
26.12000, 543.10000
26.13000, 543.10000
26.14000, 542.50000
26.15000, 543.20000
26.16000, 542.30000
26.17000, 542.30000
26.18000, 542.10000
26.19000, 542.20000
26.20000, 542.40000
26.21000, 541.90000
26.22000, 541.90000
26.23000, 543.00000
26.24000, 542.80000
26.25000, 542.50000
26.26000, 543.30000
26.27000, 541.80000
26.28000, 541.60000
26.29000, 541.80000
26.30000, 543.30000
26.31000, 543.00000
26.32000, 542.80000
26.33000, 543.00000
26.34000, 542.90000
26.35000, 543.30000
26.36000, 543.80000
26.37000, 542.10000
26.38000, 541.40000
26.39000, 542.30000
26.40000, 541.80000
26.41000, 542.10000
26.42000, 542.50000
26.43000, 542.90000
26.44000, 543.40000
26.45000, 543.00000
26.46000, 543.20000
26.47000, 543.00000
26.48000, 541.90000
26.49000, 542.30000
26.50000, 542.10000
26.51000, 543.10000
26.52000, 543.40000
26.53000, 543.60000
26.54000, 541.30000
26.55000, 541.70000
26.56000, 541.30000
26.57000, 541.60000
26.58000, 542.80000
26.59000, 541.60000
26.60000, 541.90000
26.61000, 542.20000
26.62000, 543.40000
26.63000, 543.40000
26.64000, 543.20000
26.65000, 544.00000
26.66000, 543.00000
26.67000, 543.30000
26.68000, 543.30000
26.69000, 542.50000
26.70000, 541.70000
26.71000, 541.60000
26.72000, 542.70000
26.73000, 543.30000
26.74000, 543.40000
26.75000, 542.90000
26.76000, 542.70000
26.77000, 542.60000
26.78000, 542.00000
26.79000, 542.20000
26.80000, 542.20000
26.81000, 541.70000
26.82000, 541.90000
26.83000, 542.30000
26.84000, 541.30000
26.85000, 542.30000
26.86000, 542.00000
26.87000, 542.10000
26.88000, 541.30000
26.89000, 542.20000
26.90000, 543.70000
26.91000, 543.50000
26.92000, 542.50000
26.93000, 543.60000
26.94000, 543.00000
26.95000, 542.90000
26.96000, 543.50000
26.97000, 543.30000
26.98000, 543.50000
26.99000, 542.80000
27.00000, 543.20000
27.01000, 543.10000
27.02000, 542.20000
27.03000, 542.50000
27.04000, 543.60000
27.05000, 542.90000
27.06000, 543.00000
27.07000, 542.90000
27.08000, 542.80000
27.09000, 543.10000
27.10000, 541.90000
27.11000, 543.60000
27.12000, 542.60000
27.13000, 542.40000
27.14000, 542.20000
27.15000, 542.00000
27.16000, 542.50000
27.17000, 542.50000
27.18000, 542.20000
27.19000, 542.00000
27.20000, 542.70000
27.21000, 543.30000
27.22000, 542.90000
27.23000, 542.50000
27.24000, 542.20000
27.25000, 541.70000
27.26000, 543.00000
27.27000, 543.00000
27.28000, 541.40000
27.29000, 541.50000
27.30000, 542.60000
27.31000, 543.30000
27.32000, 542.80000
27.33000, 542.20000
27.34000, 543.40000
27.35000, 542.30000
27.36000, 543.40000
27.37000, 543.70000
27.38000, 543.10000
27.39000, 542.40000
27.40000, 543.00000
27.41000, 542.30000
27.42000, 542.00000
27.43000, 542.30000
27.44000, 543.00000
27.45000, 543.20000
27.46000, 542.50000
27.47000, 542.20000
27.48000, 543.30000
27.49000, 542.80000
27.50000, 541.80000
27.51000, 542.00000
27.52000, 542.40000
27.53000, 543.70000
27.54000, 542.80000
27.55000, 542.50000
27.56000, 543.00000
27.57000, 543.50000
27.58000, 542.90000
27.59000, 543.00000
27.60000, 542.90000
27.61000, 542.70000
27.62000, 541.60000
27.63000, 542.30000
27.64000, 541.70000
27.65000, 541.90000
27.66000, 542.20000
27.67000, 542.10000
27.68000, 542.00000
27.69000, 542.80000
27.70000, 541.90000
27.71000, 542.40000
27.72000, 542.60000
27.73000, 543.00000
27.74000, 542.10000
27.75000, 541.90000
27.76000, 541.70000
27.77000, 542.10000
27.78000, 541.90000
27.79000, 542.70000
27.80000, 540.70000
27.81000, 541.90000
27.82000, 542.40000
27.83000, 542.00000
27.84000, 541.90000
27.85000, 543.00000
27.86000, 542.80000
27.87000, 542.30000
27.88000, 542.80000
27.89000, 543.10000
27.90000, 543.30000
27.91000, 540.60000
27.92000, 542.70000
27.93000, 542.70000
27.94000, 543.00000
27.95000, 542.90000
27.96000, 542.60000
27.97000, 542.70000
27.98000, 542.10000
27.99000, 542.90000
28.00000, 543.00000
28.01000, 542.90000
28.02000, 542.60000
28.03000, 541.40000
28.04000, 542.60000
28.05000, 543.00000
28.06000, 543.40000
28.07000, 541.90000
28.08000, 541.30000
28.09000, 543.70000
28.10000, 542.70000
28.11000, 542.90000
28.12000, 542.00000
28.13000, 541.70000
28.14000, 541.90000
28.15000, 541.90000
28.16000, 541.10000
28.17000, 541.90000
28.18000, 541.60000
28.19000, 542.00000
28.20000, 542.20000
28.21000, 542.00000
28.22000, 542.60000
28.23000, 542.00000
28.24000, 541.70000
28.25000, 542.30000
28.26000, 541.20000
28.27000, 541.90000
28.28000, 542.20000
28.29000, 541.70000
28.30000, 541.40000
28.31000, 541.40000
28.32000, 541.80000
28.33000, 541.70000
28.34000, 542.10000
28.35000, 542.60000
28.36000, 542.60000
28.37000, 543.10000
28.38000, 542.90000
28.39000, 543.40000
28.40000, 543.80000
28.41000, 542.20000
28.42000, 541.80000
28.43000, 542.20000
28.44000, 541.40000
28.45000, 541.60000
28.46000, 541.90000
28.47000, 542.20000
28.48000, 542.00000
28.49000, 542.20000
28.50000, 542.30000
28.51000, 543.00000
28.52000, 543.20000
28.53000, 543.40000
28.54000, 542.80000
28.55000, 542.00000
28.56000, 542.30000
28.57000, 542.10000
28.58000, 541.20000
28.59000, 543.50000
28.60000, 542.90000
28.61000, 543.20000
28.62000, 542.70000
28.63000, 541.80000
28.64000, 541.80000
28.65000, 543.00000
28.66000, 543.50000
28.67000, 542.20000
28.68000, 543.30000
28.69000, 542.70000
28.70000, 542.60000
28.71000, 542.90000
28.72000, 543.20000
28.73000, 542.60000
28.74000, 543.40000
28.75000, 541.90000
28.76000, 543.10000
28.77000, 542.90000
28.78000, 541.90000
28.79000, 541.80000
28.80000, 543.40000
28.81000, 542.40000
28.82000, 542.80000
28.83000, 543.20000
28.84000, 542.90000
28.85000, 543.50000
28.86000, 541.80000
28.87000, 542.60000
28.88000, 542.10000
28.89000, 542.20000
28.90000, 542.00000
28.91000, 542.80000
28.92000, 542.60000
28.93000, 543.30000
28.94000, 543.00000
28.95000, 542.80000
28.96000, 543.10000
28.97000, 543.80000
28.98000, 543.20000
28.99000, 542.40000
29.00000, 542.70000
29.01000, 542.40000
29.02000, 541.70000
29.03000, 541.80000
29.04000, 541.70000
29.05000, 541.80000
29.06000, 542.30000
29.07000, 542.20000
29.08000, 542.00000
29.09000, 542.30000
29.10000, 542.50000
29.11000, 542.00000
29.12000, 542.10000
29.13000, 542.00000
29.14000, 543.20000
29.15000, 543.40000
29.16000, 543.40000
29.17000, 543.00000
29.18000, 543.00000
29.19000, 541.40000
29.20000, 541.40000
29.21000, 541.90000
29.22000, 542.90000
29.23000, 542.90000
29.24000, 542.60000
29.25000, 543.60000
29.26000, 543.00000
29.27000, 543.00000
29.28000, 541.90000
29.29000, 542.10000
29.30000, 541.70000
29.31000, 542.00000
29.32000, 542.80000
29.33000, 542.80000
29.34000, 542.90000
29.35000, 542.60000
29.36000, 542.70000
29.37000, 542.40000
29.38000, 543.50000
29.39000, 542.90000
29.40000, 541.60000
29.41000, 542.30000
29.42000, 541.70000
29.43000, 542.80000
29.44000, 541.30000
29.45000, 543.20000
29.46000, 541.90000
29.47000, 542.10000
29.48000, 542.20000
29.49000, 541.80000
29.50000, 542.40000
29.51000, 541.90000
29.52000, 542.40000
29.53000, 542.60000
29.54000, 543.30000
29.55000, 542.80000
29.56000, 542.70000
29.57000, 543.40000
29.58000, 542.10000
29.59000, 541.70000
29.60000, 542.10000
29.61000, 541.80000
29.62000, 542.00000
29.63000, 543.20000
29.64000, 541.80000
29.65000, 542.00000
29.66000, 542.50000
29.67000, 542.70000
29.68000, 542.80000
29.69000, 543.10000
29.70000, 543.10000
29.71000, 542.30000
29.72000, 543.60000
29.73000, 543.40000
29.74000, 542.10000
29.75000, 542.00000
29.76000, 541.90000
29.77000, 542.40000
29.78000, 541.90000
29.79000, 543.50000
29.80000, 543.20000
29.81000, 543.00000
29.82000, 542.60000
29.83000, 542.80000
29.84000, 541.90000
29.85000, 542.40000
29.86000, 541.70000
29.87000, 542.90000
29.88000, 542.80000
29.89000, 542.50000
29.90000, 543.30000
29.91000, 542.80000
29.92000, 542.90000
29.93000, 542.50000
29.94000, 542.30000
29.95000, 542.90000
29.96000, 543.20000
29.97000, 542.00000
29.98000, 541.80000
29.99000, 541.70000
30.00000, 542.00000
30.01000, 541.70000
30.02000, 542.40000
30.03000, 542.30000
30.04000, 542.90000
30.05000, 543.00000
30.06000, 543.50000
30.07000, 542.10000
30.08000, 543.10000
30.09000, 542.80000
30.10000, 542.10000
30.11000, 543.80000
30.12000, 543.00000
30.13000, 541.90000
30.14000, 542.10000
30.15000, 543.00000
30.16000, 543.10000
30.17000, 542.80000
30.18000, 542.40000
30.19000, 541.80000
30.20000, 541.50000
30.21000, 542.20000
30.22000, 542.10000
30.23000, 542.50000
30.24000, 542.70000
30.25000, 542.80000
30.26000, 543.40000
30.27000, 543.00000
30.28000, 543.90000
30.29000, 541.70000
30.30000, 543.10000
30.31000, 542.80000
30.32000, 543.20000
30.33000, 543.10000
30.34000, 543.30000
30.35000, 543.50000
30.36000, 541.90000
30.37000, 543.10000
30.38000, 543.10000
30.39000, 543.10000
30.40000, 542.90000
30.41000, 542.80000
30.42000, 543.20000
30.43000, 542.40000
30.44000, 543.10000
30.45000, 542.70000
30.46000, 543.00000
30.47000, 543.10000
30.48000, 542.20000
30.49000, 542.90000
30.50000, 543.30000
30.51000, 542.90000
30.52000, 542.30000
30.53000, 542.80000
30.54000, 541.80000
30.55000, 542.60000
30.56000, 541.40000
30.57000, 542.30000
30.58000, 542.00000
30.59000, 542.00000
30.60000, 541.60000
30.61000, 542.00000
30.62000, 542.00000
30.63000, 543.10000
30.64000, 543.00000
30.65000, 542.70000
30.66000, 541.60000
30.67000, 543.70000
30.68000, 542.80000
30.69000, 543.30000
30.70000, 542.50000
30.71000, 542.90000
30.72000, 543.60000
30.73000, 543.30000
30.74000, 543.40000
30.75000, 542.90000
30.76000, 542.80000
30.77000, 542.70000
30.78000, 543.10000
30.79000, 542.80000
30.80000, 543.10000
30.81000, 542.40000
30.82000, 542.90000
30.83000, 543.10000
30.84000, 542.80000
30.85000, 544.20000
30.86000, 542.30000
30.87000, 541.90000
30.88000, 541.70000
30.89000, 541.80000
30.90000, 542.10000
30.91000, 542.20000
30.92000, 543.00000
30.93000, 541.40000
30.94000, 541.90000
30.95000, 542.40000
30.96000, 541.80000
30.97000, 542.10000
30.98000, 541.50000
30.99000, 542.10000
31.00000, 541.80000
31.01000, 542.20000
31.02000, 542.10000
31.03000, 542.40000
31.04000, 542.70000
31.05000, 541.50000
31.06000, 542.30000
31.07000, 542.40000
31.08000, 542.30000
31.09000, 542.10000
31.10000, 541.90000
31.11000, 541.50000
31.12000, 542.20000
31.13000, 542.00000
31.14000, 542.30000
31.15000, 541.50000
31.16000, 542.10000
31.17000, 542.20000
31.18000, 543.50000
31.19000, 543.30000
31.20000, 542.90000
31.21000, 543.10000
31.22000, 543.20000
31.23000, 542.80000
31.24000, 541.90000
31.25000, 542.80000
31.26000, 543.20000
31.27000, 543.00000
31.28000, 542.80000
31.29000, 542.50000
31.30000, 543.50000
31.31000, 541.40000
31.32000, 541.80000
31.33000, 541.50000
31.34000, 543.10000
31.35000, 543.20000
31.36000, 542.90000
31.37000, 543.00000
31.38000, 541.90000
31.39000, 542.50000
31.40000, 542.80000
31.41000, 541.80000
31.42000, 542.90000
31.43000, 542.70000
31.44000, 543.00000
31.45000, 542.70000
31.46000, 542.80000
31.47000, 542.60000
31.48000, 543.00000
31.49000, 541.90000
31.50000, 541.20000
31.51000, 542.60000
31.52000, 541.80000
31.53000, 541.80000
31.54000, 541.90000
31.55000, 542.20000
31.56000, 541.60000
31.57000, 542.00000
31.58000, 541.40000
31.59000, 543.00000
31.60000, 541.70000
31.61000, 543.40000
31.62000, 543.30000
31.63000, 543.10000
31.64000, 543.40000
31.65000, 542.80000
31.66000, 542.00000
31.67000, 541.70000
31.68000, 542.80000
31.69000, 543.10000
31.70000, 543.20000
31.71000, 543.40000
31.72000, 542.90000
31.73000, 542.20000
31.74000, 542.40000
31.75000, 541.70000
31.76000, 542.20000
31.77000, 542.50000
31.78000, 542.30000
31.79000, 542.60000
31.80000, 542.90000
31.81000, 542.40000
31.82000, 542.60000
31.83000, 543.20000
31.84000, 543.00000
31.85000, 543.40000
31.86000, 541.50000
31.87000, 541.80000
31.88000, 542.60000
31.89000, 542.50000
31.90000, 543.50000
31.91000, 542.90000
31.92000, 543.20000
31.93000, 543.10000
31.94000, 542.70000
31.95000, 541.40000
31.96000, 541.70000
31.97000, 542.50000
31.98000, 543.10000
31.99000, 543.30000
32.00000, 543.00000
32.01000, 543.20000
32.02000, 542.50000
32.03000, 543.20000
32.04000, 542.80000
32.05000, 543.80000
32.06000, 541.80000
32.07000, 542.00000
32.08000, 542.00000
32.09000, 541.80000
32.10000, 542.00000
32.11000, 542.10000
32.12000, 542.00000
32.13000, 542.70000
32.14000, 542.90000
32.15000, 543.00000
32.16000, 543.20000
32.17000, 543.00000
32.18000, 543.50000
32.19000, 543.00000
32.20000, 542.20000
32.21000, 541.80000
32.22000, 542.20000
32.23000, 542.60000
32.24000, 542.20000
32.25000, 541.90000
32.26000, 541.60000
32.27000, 542.90000
32.28000, 541.80000
32.29000, 542.70000
32.30000, 542.40000
32.31000, 542.70000
32.32000, 542.30000
32.33000, 542.00000
32.34000, 542.00000
32.35000, 543.00000
32.36000, 543.60000
32.37000, 543.30000
32.38000, 542.20000
32.39000, 541.80000
32.40000, 543.20000
32.41000, 542.70000
32.42000, 543.00000
32.43000, 542.60000
32.44000, 542.30000
32.45000, 542.80000
32.46000, 542.60000
32.47000, 543.00000
32.48000, 542.90000
32.49000, 543.00000
32.50000, 542.80000
32.51000, 543.20000
32.52000, 541.90000
32.53000, 542.70000
32.54000, 542.80000
32.55000, 542.90000
32.56000, 542.90000
32.57000, 542.90000
32.58000, 543.50000
32.59000, 542.60000
32.60000, 541.60000
32.61000, 541.70000
32.62000, 542.40000
32.63000, 543.40000
32.64000, 542.30000
32.65000, 542.60000
32.66000, 543.30000
32.67000, 543.10000
32.68000, 542.60000
32.69000, 542.20000
32.70000, 541.60000
32.71000, 543.00000
32.72000, 542.10000
32.73000, 542.10000
32.74000, 542.00000
32.75000, 541.70000
32.76000, 542.20000
32.77000, 542.00000
32.78000, 542.50000
32.79000, 542.30000
32.80000, 542.00000
32.81000, 542.70000
32.82000, 542.80000
32.83000, 541.80000
32.84000, 542.20000
32.85000, 542.00000
32.86000, 542.10000
32.87000, 542.40000
32.88000, 543.50000
32.89000, 542.70000
32.90000, 542.80000
32.91000, 543.20000
32.92000, 542.60000
32.93000, 543.40000
32.94000, 543.30000
32.95000, 542.70000
32.96000, 542.10000
32.97000, 541.60000
32.98000, 542.80000
32.99000, 542.10000
33.00000, 541.40000
33.01000, 542.90000
33.02000, 542.80000
33.03000, 542.90000
33.04000, 541.90000
33.05000, 541.80000
33.06000, 542.00000
33.07000, 542.10000
33.08000, 541.70000
33.09000, 542.40000
33.10000, 542.70000
33.11000, 542.90000
33.12000, 543.00000
33.13000, 543.30000
33.14000, 543.30000
33.15000, 543.70000
33.16000, 543.00000
33.17000, 542.70000
33.18000, 542.70000
33.19000, 542.10000
33.20000, 541.90000
33.21000, 542.10000
33.22000, 542.00000
33.23000, 541.00000
33.24000, 543.00000
33.25000, 541.30000
33.26000, 542.30000
33.27000, 541.70000
33.28000, 542.10000
33.29000, 542.80000
33.30000, 542.90000
33.31000, 542.50000
33.32000, 543.30000
33.33000, 542.70000
33.34000, 543.30000
33.35000, 541.50000
33.36000, 541.80000
33.37000, 542.60000
33.38000, 542.90000
33.39000, 543.00000
33.40000, 543.30000
33.41000, 543.00000
33.42000, 543.20000
33.43000, 541.70000
33.44000, 541.70000
33.45000, 541.90000
33.46000, 542.80000
33.47000, 542.10000
33.48000, 543.40000
33.49000, 543.00000
33.50000, 543.00000
33.51000, 542.50000
33.52000, 541.90000
33.53000, 542.30000
33.54000, 542.30000
33.55000, 541.90000
33.56000, 542.40000
33.57000, 541.60000
33.58000, 541.50000
33.59000, 543.00000
33.60000, 542.90000
33.61000, 543.00000
33.62000, 542.40000
33.63000, 543.50000
33.64000, 541.90000
33.65000, 542.10000
33.66000, 542.60000
33.67000, 543.20000
33.68000, 542.50000
33.69000, 542.30000
33.70000, 542.50000
33.71000, 541.70000
33.72000, 542.60000
33.73000, 543.10000
33.74000, 542.70000
33.75000, 542.10000
33.76000, 543.70000
33.77000, 543.00000
33.78000, 542.80000
33.79000, 543.00000
33.80000, 543.10000
33.81000, 543.00000
33.82000, 543.50000
33.83000, 543.10000
33.84000, 543.20000
33.85000, 543.20000
33.86000, 542.40000
33.87000, 542.80000
33.88000, 542.90000
33.89000, 543.30000
33.90000, 542.00000
33.91000, 541.80000
33.92000, 541.90000
33.93000, 543.40000
33.94000, 542.80000
33.95000, 543.80000
33.96000, 541.20000
33.97000, 542.30000
33.98000, 542.90000
33.99000, 543.00000
34.00000, 543.20000
34.01000, 543.20000
34.02000, 543.70000
34.03000, 542.40000
34.04000, 542.30000
34.05000, 542.30000
34.06000, 542.40000
34.07000, 541.80000
34.08000, 542.40000
34.09000, 542.70000
34.10000, 542.30000
34.11000, 542.80000
34.12000, 543.00000
34.13000, 542.60000
34.14000, 542.30000
34.15000, 543.10000
34.16000, 543.50000
34.17000, 541.90000
34.18000, 542.10000
34.19000, 541.80000
34.20000, 541.60000
34.21000, 542.00000
34.22000, 542.30000
34.23000, 541.30000
34.24000, 542.40000
34.25000, 541.10000
34.26000, 542.70000
34.27000, 543.10000
34.28000, 542.10000
34.29000, 543.20000
34.30000, 543.00000
34.31000, 542.20000
34.32000, 542.20000
34.33000, 541.80000
34.34000, 542.00000
34.35000, 543.00000
34.36000, 543.10000
34.37000, 542.60000
34.38000, 542.40000
34.39000, 542.00000
34.40000, 542.20000
34.41000, 541.60000
34.42000, 542.00000
34.43000, 542.00000
34.44000, 542.20000
34.45000, 541.60000
34.46000, 542.70000
34.47000, 541.70000
34.48000, 542.00000
34.49000, 542.40000
34.50000, 542.10000
34.51000, 542.50000
34.52000, 542.20000
34.53000, 542.10000
34.54000, 541.20000
34.55000, 542.00000
34.56000, 541.80000
34.57000, 541.60000
34.58000, 541.60000
34.59000, 543.50000
34.60000, 542.90000
34.61000, 541.70000
34.62000, 541.50000
34.63000, 541.90000
34.64000, 541.70000
34.65000, 542.40000
34.66000, 542.20000
34.67000, 541.60000
34.68000, 541.20000
34.69000, 541.60000
34.70000, 542.20000
34.71000, 541.70000
34.72000, 541.70000
34.73000, 542.00000
34.74000, 542.20000
34.75000, 542.30000
34.76000, 542.10000
34.77000, 541.90000
34.78000, 541.80000
34.79000, 541.70000
34.80000, 541.90000
34.81000, 541.70000
34.82000, 542.30000
34.83000, 541.40000
34.84000, 542.80000
34.85000, 542.90000
34.86000, 542.80000
34.87000, 541.80000
34.88000, 541.90000
34.89000, 541.80000
34.90000, 542.20000
34.91000, 541.90000
34.92000, 542.10000
34.93000, 542.70000
34.94000, 542.40000
34.95000, 542.20000
34.96000, 541.90000
34.97000, 542.00000
34.98000, 542.80000
34.99000, 543.10000
35.00000, 541.90000
35.01000, 541.70000
35.02000, 543.80000
35.03000, 543.10000
35.04000, 542.70000
35.05000, 542.80000
35.06000, 542.90000
35.07000, 543.00000
35.08000, 543.40000
35.09000, 542.70000
35.10000, 543.10000
35.11000, 542.50000
35.12000, 543.20000
35.13000, 543.20000
35.14000, 543.00000
35.15000, 543.10000
35.16000, 542.00000
35.17000, 541.60000
35.18000, 542.40000
35.19000, 542.50000
35.20000, 542.10000
35.21000, 543.30000
35.22000, 543.20000
35.23000, 543.50000
35.24000, 542.20000
35.25000, 542.50000
35.26000, 542.60000
35.27000, 543.00000
35.28000, 542.70000
35.29000, 543.10000
35.30000, 542.90000
35.31000, 543.40000
35.32000, 542.60000
35.33000, 542.50000
35.34000, 542.50000
35.35000, 542.00000
35.36000, 541.90000
35.37000, 541.60000
35.38000, 542.40000
35.39000, 541.90000
35.40000, 541.80000
35.41000, 541.90000
35.42000, 541.90000
35.43000, 542.10000
35.44000, 544.00000
35.45000, 543.10000
35.46000, 542.50000
35.47000, 542.80000
35.48000, 543.70000
35.49000, 543.10000
35.50000, 542.60000
35.51000, 543.60000
35.52000, 543.00000
35.53000, 543.10000
35.54000, 543.30000
35.55000, 542.90000
35.56000, 543.30000
35.57000, 542.20000
35.58000, 542.40000
35.59000, 542.30000
35.60000, 542.30000
35.61000, 541.60000
35.62000, 542.50000
35.63000, 542.80000
35.64000, 542.30000
35.65000, 542.20000
35.66000, 543.30000
35.67000, 542.70000
35.68000, 543.20000
35.69000, 543.10000
35.70000, 541.70000
35.71000, 542.90000
35.72000, 542.40000
35.73000, 542.10000
35.74000, 541.80000
35.75000, 542.00000
35.76000, 542.30000
35.77000, 542.30000
35.78000, 542.30000
35.79000, 542.30000
35.80000, 543.00000
35.81000, 542.90000
35.82000, 542.80000
35.83000, 543.10000
35.84000, 543.00000
35.85000, 542.30000
35.86000, 542.10000
35.87000, 542.70000
35.88000, 543.10000
35.89000, 542.00000
35.90000, 542.00000
35.91000, 542.20000
35.92000, 542.10000
35.93000, 542.40000
35.94000, 542.10000
35.95000, 542.20000
35.96000, 541.70000
35.97000, 542.80000
35.98000, 541.80000
35.99000, 542.00000
36.00000, 543.70000
36.01000, 541.80000
36.02000, 542.40000
36.03000, 542.30000
36.04000, 543.50000
36.05000, 542.90000
36.06000, 543.10000
36.07000, 543.00000
36.08000, 543.00000
36.09000, 542.50000
36.10000, 541.90000
36.11000, 543.60000
36.12000, 543.00000
36.13000, 543.00000
36.14000, 543.70000
36.15000, 543.20000
36.16000, 542.80000
36.17000, 542.70000
36.18000, 543.40000
36.19000, 542.70000
36.20000, 543.00000
36.21000, 543.30000
36.22000, 543.30000
36.23000, 543.00000
36.24000, 543.30000
36.25000, 542.40000
36.26000, 542.10000
36.27000, 542.50000
36.28000, 542.60000
36.29000, 543.70000
36.30000, 542.40000
36.31000, 543.20000
36.32000, 542.40000
36.33000, 543.10000
36.34000, 543.30000
36.35000, 542.80000
36.36000, 543.40000
36.37000, 542.70000
36.38000, 542.90000
36.39000, 542.70000
36.40000, 542.40000
36.41000, 543.50000
36.42000, 542.90000
36.43000, 543.10000
36.44000, 541.20000
36.45000, 542.10000
36.46000, 541.90000
36.47000, 541.90000
36.48000, 541.90000
36.49000, 543.00000
36.50000, 542.40000
36.51000, 543.60000
36.52000, 543.40000
36.53000, 543.00000
36.54000, 543.30000
36.55000, 542.80000
36.56000, 542.60000
36.57000, 543.20000
36.58000, 542.10000
36.59000, 542.40000
36.60000, 543.30000
36.61000, 543.00000
36.62000, 543.10000
36.63000, 543.10000
36.64000, 542.50000
36.65000, 543.30000
36.66000, 541.90000
36.67000, 543.40000
36.68000, 543.40000
36.69000, 542.80000
36.70000, 542.70000
36.71000, 542.80000
36.72000, 541.70000
36.73000, 542.00000
36.74000, 541.70000
36.75000, 541.90000
36.76000, 541.80000
36.77000, 541.40000
36.78000, 542.60000
36.79000, 543.10000
36.80000, 542.80000
36.81000, 543.20000
36.82000, 542.90000
36.83000, 543.00000
36.84000, 543.20000
36.85000, 543.60000
36.86000, 543.30000
36.87000, 543.30000
36.88000, 543.00000
36.89000, 543.40000
36.90000, 543.10000
36.91000, 543.40000
36.92000, 542.90000
36.93000, 543.20000
36.94000, 542.20000
36.95000, 542.60000
36.96000, 542.80000
36.97000, 543.30000
36.98000, 543.70000
36.99000, 542.60000
37.00000, 543.30000
37.01000, 542.60000
37.02000, 542.70000
37.03000, 543.00000
37.04000, 542.60000
37.05000, 543.00000
37.06000, 543.60000
37.07000, 543.20000
37.08000, 542.70000
37.09000, 543.80000
37.10000, 543.20000
37.11000, 542.80000
37.12000, 543.00000
37.13000, 542.40000
37.14000, 541.90000
37.15000, 542.00000
37.16000, 542.40000
37.17000, 543.20000
37.18000, 543.00000
37.19000, 542.80000
37.20000, 542.40000
37.21000, 542.60000
37.22000, 542.20000
37.23000, 542.20000
37.24000, 541.70000
37.25000, 542.50000
37.26000, 542.40000
37.27000, 541.90000
37.28000, 542.60000
37.29000, 542.40000
37.30000, 543.70000
37.31000, 541.90000
37.32000, 541.90000
37.33000, 542.30000
37.34000, 541.70000
37.35000, 541.70000
37.36000, 541.80000
37.37000, 542.70000
37.38000, 542.60000
37.39000, 541.90000
37.40000, 541.50000
37.41000, 542.10000
37.42000, 542.00000
37.43000, 543.60000
37.44000, 542.90000
37.45000, 543.20000
37.46000, 543.40000
37.47000, 542.70000
37.48000, 542.50000
37.49000, 541.90000
37.50000, 542.20000
37.51000, 542.10000
37.52000, 541.40000
37.53000, 541.40000
37.54000, 543.20000
37.55000, 543.00000
37.56000, 542.30000
37.57000, 542.60000
37.58000, 542.80000
37.59000, 542.00000
37.60000, 542.10000
37.61000, 542.30000
37.62000, 542.70000
37.63000, 542.00000
37.64000, 543.10000
37.65000, 542.00000
37.66000, 542.00000
37.67000, 541.60000
37.68000, 541.90000
37.69000, 541.80000
37.70000, 542.50000
37.71000, 542.10000
37.72000, 543.00000
37.73000, 543.20000
37.74000, 542.10000
37.75000, 541.80000
37.76000, 541.90000
37.77000, 542.40000
37.78000, 542.30000
37.79000, 541.50000
37.80000, 542.10000
37.81000, 542.30000
37.82000, 541.90000
37.83000, 542.60000
37.84000, 542.70000
37.85000, 542.20000
37.86000, 541.40000
37.87000, 541.70000
37.88000, 541.80000
37.89000, 541.60000
37.90000, 542.00000
37.91000, 541.60000
37.92000, 541.60000
37.93000, 542.30000
37.94000, 543.40000
37.95000, 543.60000
37.96000, 542.60000
37.97000, 543.20000
37.98000, 543.10000
37.99000, 542.50000
38.00000, 542.90000
38.01000, 542.70000
38.02000, 543.00000
38.03000, 542.80000
38.04000, 543.00000
38.05000, 543.20000
38.06000, 543.20000
38.07000, 543.30000
38.08000, 543.50000
38.09000, 542.80000
38.10000, 542.30000
38.11000, 543.40000
38.12000, 542.80000
38.13000, 542.80000
38.14000, 542.90000
38.15000, 542.90000
38.16000, 541.80000
38.17000, 542.10000
38.18000, 542.70000
38.19000, 542.00000
38.20000, 541.90000
38.21000, 542.50000
38.22000, 542.30000
38.23000, 542.50000
38.24000, 541.40000
38.25000, 541.70000
38.26000, 542.20000
38.27000, 543.20000
38.28000, 542.80000
38.29000, 541.90000
38.30000, 542.30000
38.31000, 541.80000
38.32000, 542.30000
38.33000, 542.80000
38.34000, 542.00000
38.35000, 541.60000
38.36000, 541.30000
38.37000, 541.90000
38.38000, 541.80000
38.39000, 542.30000
38.40000, 541.90000
38.41000, 542.60000
38.42000, 543.60000
38.43000, 542.80000
38.44000, 542.90000
38.45000, 543.10000
38.46000, 543.10000
38.47000, 541.90000
38.48000, 542.20000
38.49000, 541.50000
38.50000, 542.10000
38.51000, 542.20000
38.52000, 542.00000
38.53000, 542.60000
38.54000, 542.80000
38.55000, 542.40000
38.56000, 541.70000
38.57000, 542.20000
38.58000, 543.40000
38.59000, 542.90000
38.60000, 542.50000
38.61000, 542.90000
38.62000, 543.40000
38.63000, 543.10000
38.64000, 542.60000
38.65000, 542.30000
38.66000, 542.00000
38.67000, 542.20000
38.68000, 541.90000
38.69000, 541.60000
38.70000, 541.90000
38.71000, 541.20000
38.72000, 542.10000
38.73000, 543.50000
38.74000, 542.70000
38.75000, 542.50000
38.76000, 542.60000
38.77000, 542.10000
38.78000, 541.80000
38.79000, 542.30000
38.80000, 542.50000
38.81000, 541.60000
38.82000, 541.80000
38.83000, 542.40000
38.84000, 542.70000
38.85000, 542.00000
38.86000, 542.60000
38.87000, 541.80000
38.88000, 542.00000
38.89000, 543.00000
38.90000, 543.20000
38.91000, 543.20000
38.92000, 542.70000
38.93000, 541.80000
38.94000, 543.40000
38.95000, 542.70000
38.96000, 542.00000
38.97000, 542.00000
38.98000, 542.70000
38.99000, 541.50000
39.00000, 541.60000
39.01000, 542.90000
39.02000, 542.80000
39.03000, 543.10000
39.04000, 543.20000
39.05000, 541.80000
39.06000, 542.10000
39.07000, 542.30000
39.08000, 542.40000
39.09000, 542.10000
39.10000, 541.70000
39.11000, 542.20000
39.12000, 542.30000
39.13000, 542.20000
39.14000, 542.90000
39.15000, 543.80000
39.16000, 542.60000
39.17000, 542.30000
39.18000, 541.60000
39.19000, 542.20000
39.20000, 541.60000
39.21000, 541.90000
39.22000, 542.20000
39.23000, 541.30000
39.24000, 542.20000
39.25000, 542.70000
39.26000, 541.70000
39.27000, 542.00000
39.28000, 542.60000
39.29000, 543.80000
39.30000, 543.20000
39.31000, 542.90000
39.32000, 541.50000
39.33000, 543.30000
39.34000, 541.70000
39.35000, 542.40000
39.36000, 543.70000
39.37000, 542.00000
39.38000, 541.60000
39.39000, 542.40000
39.40000, 543.40000
39.41000, 542.50000
39.42000, 543.20000
39.43000, 542.50000
39.44000, 543.10000
39.45000, 542.80000
39.46000, 542.40000
39.47000, 542.30000
39.48000, 542.00000
39.49000, 541.70000
39.50000, 542.20000
39.51000, 542.00000
39.52000, 542.80000
39.53000, 541.50000
39.54000, 541.70000
39.55000, 541.30000
39.56000, 541.80000
39.57000, 541.70000
39.58000, 541.50000
39.59000, 542.70000
39.60000, 543.10000
39.61000, 543.20000
39.62000, 543.00000
39.63000, 543.30000
39.64000, 542.50000
39.65000, 542.70000
39.66000, 543.70000
39.67000, 542.00000
39.68000, 542.00000
39.69000, 541.80000
39.70000, 542.10000
39.71000, 542.20000
39.72000, 543.20000
39.73000, 542.40000
39.74000, 542.70000
39.75000, 542.90000
39.76000, 542.90000
39.77000, 542.20000
39.78000, 542.30000
39.79000, 542.10000
39.80000, 543.00000
39.81000, 543.30000
39.82000, 543.60000
39.83000, 542.00000
39.84000, 543.50000
39.85000, 542.60000
39.86000, 543.20000
39.87000, 543.40000
39.88000, 542.00000
39.89000, 542.80000
39.90000, 543.50000
39.91000, 543.80000
39.92000, 543.10000
39.93000, 542.80000
39.94000, 542.00000
39.95000, 541.80000
39.96000, 542.20000
39.97000, 542.40000
39.98000, 542.30000
39.99000, 542.30000
